"id","temp_humidity","temp_pressure","pressure","humidity","pitch","roll","yaw","compass_x","compass_y","compass_z","acc_x","acc_y","acc_z","gyro_x","gyro_y","gyro_z","capture_time","capture_timestamp","status","comment"
"1","36.8632","36.7729","1013.09","34.5991","104.852","0.863144","358.221","-18.7559","-5.71481","-26.9958","0.0150531","0.0312755","0.999401","-0.00714438","-0.00398713","0.0039527","2015-12-08 14:51:51","1449557511313","Synced","Still"
"2","36.8452","36.7729","1013.08","35.9224","105.438","0.974497","358.152","-18.5805","-5.89098","-27.127","0.0150531","0.0310331","0.999157","-0.00832034","-0.00273648","0.00365206","2015-12-08 14:51:51","1449557511529","Synced","Still"
"3","36.9172","36.7854","1013.09","35.7402","105.12","1.01625","358.221","-18.6616","-5.78015","-27.6567","0.0152959","0.0317604","0.999644","-0.00925639","-0.00365672","0.00392764","2015-12-08 14:51:51","1449557511749","Synced","Still"
"4","36.8092","36.7875","1013.08","35.0081","105.274","0.807268","358.249","-18.5408","-5.80068","-27.2476","0.0143248","0.031518","0.99867","-0.00765918","-0.00295124","0.00422751","2015-12-08 14:51:51","1449557511950","Synced","Still"
"5","36.8992","36.7792","1013.08","34.8534","104.999","0.93274","358.193","-18.4113","-5.67942","-27.0515","0.0167527","0.0307906","0.999401","-0.00713462","-0.00457293","0.0023512","2015-12-08 14:51:52","1449557512153","Synced","Still"
"6","36.8992","36.7792","1013.09","36.4586","105.578","0.890765","358.222","-18.5111","-5.88298","-26.6431","0.0162671","0.031518","0.999644","-0.00954668","-0.00481882","0.00245129","2015-12-08 14:51:52","1449557512403","Synced","Still"
"7","36.8092","36.775","1013.09","34.0698","105.038","0.849017","358.249","-18.5637","-5.71099","-26.8512","0.0160243","0.0320029","0.999401","-0.0059727","-0.00153545","0.00545925","2015-12-08 14:51:52","1449557512603","Synced","Still"
"8","36.7912","36.7792","1013.09","34.6472","105.402","0.890983","358.152","-18.601","-5.89245","-27.0462","0.0165099","0.0322453","0.999644","-0.0080457","-0.00214555","0.0036625","2015-12-08 14:51:52","1449557512807","Synced","Still"
"9","36.8272","36.7896","1013.08","35.204","104.841","0.960578","358.235","-18.6035","-5.66103","-27.315","0.0155387","0.0305482","0.999644","-0.00777467","-0.00664012","0.00213602","2015-12-08 14:51:53","1449557513015","Synced","Still"
"10","36.8272","36.7833","1013.08","35.2178","105.713","0.946659","358.166","-18.3167","-5.90581","-27.0737","0.0152959","0.0320029","0.999401","-0.0068191","-0.00295688","0.00482879","2015-12-08 14:51:53","1449557513239","Synced","Still"
"11","36.9352","36.7812","1013.05","35.1009","104.484","0.890548","358.139","-18.6349","-5.60231","-27.2893","0.0160243","0.0307906","0.999401","-0.00951649","-0.00180034","0.00448332","2015-12-08 14:51:53","1449557513438","Synced","Still"
"12","36.9352","36.7875","1013.05","34.5716","104.37","0.946428","358.194","-18.6165","-5.51937","-27.0598","0.0160243","0.031518","0.999644","-0.00693887","-0.00214538","0.00335193","2015-12-08 14:51:53","1449557513642","Synced","Still"
"13","36.8632","36.7896","1013.06","34.9153","105.461","0.960344","358.194","-18.5186","-5.87358","-27.5151","0.0160243","0.0310331","0.999157","-0.00625854","-0.000919547","0.0036323","2015-12-08 14:51:53","1449557513857","Synced","Still"
"14","36.8452","36.7833","1013.07","33.9804","104.879","0.862723","358.208","-18.35","-5.63329","-27.4079","0.0155387","0.0322453","0.999401","-0.00735939","-0.00385735","0.00427277","2015-12-08 14:51:54","1449557514070","Synced","Still"
"15","36.8992","36.7812","1013.07","36.2523","104.689","0.946659","358.235","-18.5128","-5.59074","-27.4514","0.0162671","0.0341849","0.999644","-0.00749901","-0.00101391","0.00181031","2015-12-08 14:51:54","1449557514277","Synced","Still"
"16","36.9352","36.7771","1013.08","35.1456","105.149","0.945276","358.182","-18.5119","-5.75843","-26.958","0.0162671","0.0317604","0.999157","-0.00720418","-0.00150475","0.00244119","2015-12-08 14:51:54","1449557514483","Synced","Still"
"17","36.8272","36.7896","1013.08","35.0837","105.891","0.988175","358.208","-18.2435","-5.93396","-27.6277","0.0155387","0.0322453","0.999401","-0.00743467","-0.00365236","0.00362204","2015-12-08 14:51:54","1449557514691","Synced","Still"
"18","36.8272","36.7792","1013.08","35.3312","105.36","0.988174","358.18","-18.6517","-5.86961","-27.1596","0.0169955","0.0310331","0.999888","-0.00715943","-0.00248118","0.00281173","2015-12-08 14:51:54","1449557514900","Synced","Still"
"19","36.8632","36.7854","1013.09","35.1937","105.005","0.918597","358.152","-18.6125","-5.76123","-27.2105","0.0157815","0.0320029","0.999401","-0.00774472","-0.00396309","0.00303204","2015-12-08 14:51:55","1449557515106","Synced","Still"
"20","36.8452","36.7917","1013.08","35.1318","105.041","0.974497","358.221","-18.6632","-5.74903","-27.286","0.0160243","0.0305482","0.999888","-0.00713437","-0.0041786","0.00273182","2015-12-08 14:51:55","1449557515319","Synced","Still"
"21","36.8632","36.7875","1013.09","35.5993","105.419","0.974497","358.193","-18.5796","-5.87363","-27.4719","0.0160243","0.0317604","0.999401","-0.0086256","-0.000944782","0.00214089","2015-12-08 14:51:55","1449557515528","Synced","Still"
"22","36.8452","36.775","1013.1","34.9187","105.536","1.02967","358.264","-18.4992","-5.84738","-27.3812","0.0165099","0.0312755","0.999401","-0.00654832","-0.00477836","0.00393748","2015-12-08 14:51:55","1449557515732","Synced","Still"
"23","36.8812","36.7875","1013.1","33.1108","105.236","0.960344","358.18","-18.4186","-5.77695","-27.5176","0.0160243","0.0310331","0.999157","-0.00748035","-0.00363747","0.00334184","2015-12-08 14:51:55","1449557515937","Synced","Still"
"24","36.8092","36.7792","1013.1","35.0493","104.77","0.946428","358.166","-18.4118","-5.61773","-27.182","0.0169955","0.031518","0.999401","-0.00897123","-0.00271638","0.00276656","2015-12-08 14:51:56","1449557516144","Synced","Still"
"25","36.9352","36.775","1013.12","34.7778","105.357","0.974259","358.166","-18.5312","-5.83744","-26.9185","0.0167527","0.0317604","0.998913","-0.00927641","-0.00304679","0.00333225","2015-12-08 14:51:56","1449557516402","Synced","Still"
"26","36.8632","36.7833","1013.11","33.5851","105.442","0.877063","358.235","-18.3562","-5.82041","-27.8128","0.0157815","0.0327302","0.999644","-0.00685871","-0.00244064","0.00275638","2015-12-08 14:51:56","1449557516626","Synced","Still"
"27","36.8092","36.7812","1013.1","35.7161","105.226","0.918373","358.236","-18.5925","-5.78538","-27.0163","0.0157815","0.0307906","0.999157","-0.00741423","-0.00151981","0.00337709","2015-12-08 14:51:56","1449557516834","Synced","Still"
"28","36.8272","39.6437","1013.1","35.0768","105.314","0.93274","358.138","-18.6118","-5.86463","-26.9661","0.0152959","0.0307906","0.999644","-0.00687873","-0.00488358","0.00389761","2015-12-08 14:51:57","1449557517040","Synced","Still"
"29","36.9172","36.7875","1013.08","36.0358","104.448","0.96011","358.305","-18.7989","-5.53704","-27.0265","0.0155387","0.0307906","0.999644","-0.00562252","-0.00363713","0.00274637","2015-12-08 14:51:57","1449557517253","Synced","Still"
"30","36.8272","36.7833","1013.07","34.0044","105.387","0.946428","358.291","-18.7953","-5.85816","-26.6911","0.0155387","0.0305482","0.999401","-0.00712898","-0.00336787","0.00335202","2015-12-08 14:51:57","1449557517462","Synced","Still"
"31","36.8272","36.7833","1013.06","35.2212","105.321","0.904681","358.208","-18.3704","-5.76497","-26.7537","0.0167527","0.0320029","0.999401","-0.00750002","-0.00327677","0.00244145","2015-12-08 14:51:57","1449557517664","Synced","Still"
"32","36.8452","36.7896","1013.06","34.8603","105.786","0.890765","358.208","-18.4287","-5.94044","-26.7605","0.0160243","0.0324878","0.998913","-0.00598288","-0.00425269","0.00393756","2015-12-08 14:51:57","1449557517867","Synced","Still"
"33","36.8812","36.7854","1013.06","34.7537","105.567","0.988416","358.207","-18.5098","-5.8842","-27.0359","0.0167527","0.0322453","0.999401","-0.00564784","-0.00209055","0.00213619","2015-12-08 14:51:58","1449557518077","Synced","Still"
"34","36.9172","36.7875","1013.06","35.0665","105.379","0.987452","358.209","-18.4705","-5.80748","-26.9839","0.0157815","0.0310331","0.999401","-0.00593788","-0.00152477","0.00336203","2015-12-08 14:51:58","1449557518285","Synced","Still"
"35","36.8092","36.7917","1013.08","34.8843","105.546","0.904461","358.18","-18.4385","-5.88312","-27.1331","0.0172383","0.0322453","0.999157","-0.00803038","-0.00391228","0.003332","2015-12-08 14:51:58","1449557518493","Synced","Still"
"36","36.8632","36.7833","1013.08","33.8017","105.307","0.946428","358.208","-18.7444","-5.85761","-26.7505","0.0167527","0.0307906","0.999401","-0.00864579","-0.00422275","0.00365223","2015-12-08 14:51:58","1449557518706","Synced","Still"
"37","36.8272","36.7917","1013.1","34.5647","105.339","0.918597","358.208","-18.6414","-5.8576","-27.2675","0.0157815","0.0317604","0.999401","-0.00775456","-0.00186031","0.00480338","2015-12-08 14:51:58","1449557518921","Synced","Still"
"38","36.7912","36.7833","1013.1","34.9015","104.884","0.932513","358.249","-18.7456","-5.70338","-27.0768","0.0155387","0.0312755","0.999157","-0.00477218","-0.00425236","0.00186541","2015-12-08 14:51:59","1449557519132","Synced","Still"
"39","36.8812","36.7833","1013.1","34.8019","104.555","0.876422","358.209","-18.5349","-5.56074","-27.0161","0.0167527","0.0312755","0.999157","-0.00894651","-0.00480847","0.00364744","2015-12-08 14:51:59","1449557519342","Synced","Still"
"40","36.8452","36.7875","1013.1","34.8843","104.877","0.960344","358.249","-18.5028","-5.63602","-27.1814","0.0169955","0.0317604","0.999401","-0.00657381","-0.000669289","0.00153559","2015-12-08 14:51:59","1449557519547","Synced","Still"
"41","36.9532","36.7938","1013.09","34.6438","104.947","1.00136","358.181","-18.3814","-5.6509","-27.0307","0.0172383","0.0329726","0.999157","-0.0062333","-0.00268148","0.00150026","2015-12-08 14:51:59","1449557519747","Synced","Still"
"42","36.9712","36.7833","1013.09","34.9531","104.539","0.862933","358.111","-18.6053","-5.6201","-26.9446","0.0169955","0.0322453","0.999401","-0.0054129","-0.00394273","0.00303187","2015-12-08 14:51:59","1449557519988","Synced","Still"
"43","36.9352","36.7854","1013.09","35.314","104.905","0.946659","358.207","-18.5128","-5.66742","-27.0838","0.0162671","0.0317604","0.999401","-0.00805991","-0.000934433","0.00303692","2015-12-08 14:52:00","1449557520201","Synced","Still"
"44","36.8632","36.7896","1013.09","35.1696","104.904","0.918597","358.152","-18.4306","-5.68234","-27.3528","0.0167527","0.0307906","0.999401","-0.00626804","-0.00213067","0.00242656","2015-12-08 14:52:00","1449557520470","Synced","Still"
"45","36.8632","36.7938","1013.09","34.6094","105.234","0.890548","358.167","-18.4792","-5.80655","-27.4683","0.0150531","0.0324878","0.999401","-0.00802525","-0.00182087","0.00333209","2015-12-08 14:52:00","1449557520684","Synced","Still"
"46","36.8452","36.7896","1013.09","34.7606","105.141","0.876849","358.18","-18.5116","-5.76671","-27.0277","0.0169955","0.0320029","0.999401","-0.00773984","-0.0042278","0.00153003","2015-12-08 14:52:00","1449557520889","Synced","Still"
"47","36.7372","36.7833","1013.09","34.8328","105.207","0.973784","358.209","-18.6618","-5.81488","-27.4137","0.0165099","0.031518","0.999157","-0.00716465","-0.00153503","0.00392242","2015-12-08 14:52:01","1449557521089","Synced","Still"
"48","36.7732","36.7792","1013.09","35.0115","104.797","0.946428","358.152","-18.5425","-5.67173","-27.315","0.0157815","0.031518","0.999401","-0.0071993","-0.00248581","0.00156023","2015-12-08 14:52:01","1449557521302","Synced","Still"
"49","36.8092","36.7938","1013.09","35.2796","105.183","0.988174","358.138","-18.622","-5.82112","-27.1554","0.0155387","0.031518","1.00038","-0.00659887","-0.0021157","0.00272627","2015-12-08 14:52:01","1449557521526","Synced","Still"
"50","36.9172","36.7896","1013.09","34.4822","105.452","0.918597","358.152","-18.3275","-5.83428","-27.1991","0.0160243","0.031518","0.999644","-0.00686889","-0.00161039","0.0012299","2015-12-08 14:52:01","1449557521761","Synced","Still"
"51","36.8632","36.7854","1013.09","34.4822","104.999","0.960344","358.194","-18.3204","-5.65131","-27.0524","0.0160243","0.0295784","0.999401","-0.00775456","-0.00294191","0.00210103","2015-12-08 14:52:01","1449557521993","Synced","Still"
"52","36.8812","36.7833","1013.08","34.6987","105.446","0.890765","358.249","-18.56","-5.85701","-27.3485","0.0160243","0.0312755","0.999401","-0.0062481","-0.00175038","0.0027314","2015-12-08 14:52:02","1449557522200","Synced","Still"
"53","36.8272","36.7896","1013.08","34.8328","105.004","0.932286","358.125","-18.5115","-5.74402","-27.1682","0.0157815","0.0307906","0.999401","-0.00812552","-0.00304158","0.00245608","2015-12-08 14:52:02","1449557522412","Synced","Still"
"54","36.8092","36.7917","1013.08","35.0218","104.549","0.974259","358.152","-18.3015","-5.51995","-27.2438","0.0157815","0.0305482","0.999401","-0.00447188","-0.00126014","0.00240654","2015-12-08 14:52:02","1449557522631","Synced","Still"
"55","36.7732","36.7833","1013.09","34.5578","104.665","0.904681","358.208","-18.4846","-5.57588","-26.806","0.0165099","0.0324878","0.999401","-0.00805015","-0.00237587","0.00244111","2015-12-08 14:52:02","1449557522836","Synced","Still"
"56","36.9352","36.7938","1013.09","35.3724","105.492","1.17924","358.421","-18.713","-5.79581","-27.3548","0.0106829","0.0349122","0.996233","-0.00132371","0.00286892","0.00509864","2015-12-08 14:52:03","1449557523041","Synced","Still"
"57","36.7732","36.7875","1013.1","35.1971","105.187","0.96011","358.18","-18.3696","-5.73675","-27.1473","0.0148103","0.0327302","0.998913","-0.00805999","-0.00300137","0.00242605","2015-12-08 14:52:03","1449557523240","Synced","Still"
"58","36.9172","36.7896","1013.1","34.3688","104.361","0.918597","358.249","-18.5258","-5.47082","-27.0988","0.0172383","0.0322453","0.999157","-0.00657885","-0.00240641","0.00152019","2015-12-08 14:52:03","1449557523446","Synced","Still"
"59","36.7552","36.7896","1013.09","36.3279","104.926","0.904681","358.194","-18.2906","-5.62386","-26.9832","0.0152959","0.0322453","0.999644","-0.00504237","-0.00182062","0.00332233","2015-12-08 14:52:03","1449557523651","Synced","Still"
"60","36.7552","36.7854","1013.07","35.3518","105.001","0.932513","358.152","-18.4516","-5.7092","-27.0077","0.0155387","0.0307906","0.999401","-0.00566315","-0.00330193","0.00306686","2015-12-08 14:52:03","1449557523858","Synced","Still"
"61","36.8992","36.7875","1013.06","36.6717","105.409","0.974259","358.249","-18.2179","-5.73163","-27.0348","0.0162671","0.0307906","0.999401","-0.00631363","-0.00334188","0.00183555","2015-12-08 14:52:04","1449557524064","Synced","Still"
"62","36.8272","36.7958","1013.05","34.8775","105.545","0.918597","358.208","-18.7113","-5.94615","-27.2061","0.0155387","0.031518","0.999401","-0.00717424","-0.00394726","0.00396246","2015-12-08 14:52:04","1449557524276","Synced","Still"
"63","36.8272","36.7833","1013.05","35.0803","105.09","1.00233","358.11","-18.7136","-5.82261","-27.0259","0.0165099","0.031518","0.999157","-0.00625836","-0.00123482","0.00180073","2015-12-08 14:52:04","1449557524521","Synced","Still"
"64","36.8992","36.7938","1013.08","35.0975","105.669","0.904681","358.222","-18.6597","-5.97303","-27.3564","0.0157815","0.0324878","0.999401","-0.00688378","-0.00272647","0.00425241","2015-12-08 14:52:04","1449557524733","Synced","Still"
"65","36.9172","36.7854","1013.09","36.3623","104.61","0.918373","358.153","-18.6854","-5.64399","-27.1429","0.0152959","0.0310331","0.999401","-0.00772504","-0.00207061","0.00484872","2015-12-08 14:52:04","1449557524947","Synced","Still"
"66","36.8272","36.7896","1013.09","35.6268","105.009","1.0165","358.304","-18.7166","-5.69268","-26.6897","0.0148103","0.0317604","0.998913","-0.00565802","-0.000899445","0.00304154","2015-12-08 14:52:05","1449557525147","Synced","Still"
"67","36.8812","39.6437","1013.09","34.2175","105.178","1.016","358.305","-18.4509","-5.69291","-27.3041","0.0167527","0.0327302","0.999401","-0.00595285","-0.00209534","0.00356728","2015-12-08 14:52:05","1449557525351","Synced","Still"
"68","36.7912","36.7938","1013.09","36.2867","104.989","0.904681","358.166","-18.4114","-5.69064","-26.9867","0.014082","0.0322453","0.999401","-0.00564263","-0.00359701","0.00336211","2015-12-08 14:52:05","1449557525558","Synced","Still"
"69","36.8812","36.7896","1013.09","34.4341","105.045","0.905123","358.165","-18.4715","-5.72758","-27.0503","0.0155387","0.0327302","0.999644","-0.00628343","-0.00160493","0.00275151","2015-12-08 14:52:05","1449557525758","Synced","Still"
"70","36.9352","36.7896","1013.08","34.9978","104.775","0.946428","358.194","-18.3919","-5.59946","-27.1341","0.0165099","0.0312755","0.999401","-0.00533753","-0.00154496","0.00332729","2015-12-08 14:52:05","1449557525963","Synced","Still"
"71","36.8632","36.7917","1013.09","34.8843","104.526","0.946428","358.208","-18.7062","-5.59311","-27.2139","0.0174811","0.031518","0.999157","-0.00685871","-0.00332674","0.00396767","2015-12-08 14:52:06","1449557526162","Synced","Still"
"72","36.8812","36.8375","1013.06","36.3279","104.532","0.988175","358.374","-18.1833","-5.36436","-26.817","0.0267072","0.0167288","0.938477","-0.122629","-0.153499","0.000474695","2015-12-08 14:53:29","1449557609630","Synced","Normal Walk"
"73","36.8992","36.8312","1013.06","34.9359","104.269","0.0919848","357.508","-18.5313","-5.87087","-26.7347","0.0369045","0.0128496","1.05838","0.0211885","0.046917","0.00350059","2015-12-08 14:53:29","1449557609841","Synced","Normal Walk"
"74","36.8812","36.8271","1013.06","34.5956","105.138","1.22382","358.348","-18.5837","-5.66533","-27.132","0.0252504","0.0353971","0.939695","-0.00106894","-0.000148416","0.013077","2015-12-08 14:53:30","1449557610043","Synced","Normal Walk"
"75","36.9352","36.8354","1013.07","34.5819","102.542","359.873","356.613","-18.3302","-5.69218","-26.9708","0.0405464","0.0155165","1.00233","-0.0335218","-0.020538","0.0875256","2015-12-08 14:53:30","1449557610254","Synced","Normal Walk"
"76","36.8272","36.8312","1013.05","34.6438","104.939","1.54317","357.836","-18.4007","-5.75201","-26.8777","0.0104401","-0.0118481","1.00159","0.03124","0.0223387","0.0496174","2015-12-08 14:53:30","1449557610454","Synced","Normal Walk"
"77","36.9892","36.8354","1013.07","35.0012","107.788","2.48214","359.568","-17.8174","-5.55023","-26.1843","0.0417603","0.0126072","0.997207","-0.0129853","-0.0196229","0.00914781","2015-12-08 14:53:30","1449557610711","Synced","Normal Walk"
"78","36.9172","36.8292","1013.06","35.0734","107.303","3.44283","359.304","-18.1423","-5.48134","-26.427","0.0568135","0.0143043","0.999401","0.0132472","-0.0156967","-0.137609","2015-12-08 14:53:30","1449557610943","Synced","Normal Walk"
"79","36.8992","36.8333","1013.06","35.1765","97.1978","6.99729","352.955","-18.5789","-5.45583","-26.4047","0.0895905","0.0972208","0.993796","0.0984629","-0.170246","-1.47266","2015-12-08 14:53:31","1449557611159","Synced","Normal Walk"
"80","36.9172","36.8312","1013.06","35.6715","105.821","9.56491","355.41","-23.3592","-7.66022","-25.0707","-0.00578942","-0.0236962","0.959922","-1.1642","-0.105799","0.0496209","2015-12-08 14:53:31","1449557611367","Synced","Normal Walk"
"81","36.9352","36.8271","1013.07","34.8328","111.496","2.00357","1.28675","-23.8237","-8.44053","-25.3911","0.0344765","-0.0207342","0.999644","-0.00772025","-0.0033571","0.00190065","2015-12-08 14:53:31","1449557611589","Synced","Normal Walk"
"82","36.9712","36.8333","1013.07","35.8296","110.22","358.982","2.824","-23.9449","-7.76078","-25.4596","0.0271928","0.0152741","0.992334","-0.0405089","0.0267584","-1.57223","2015-12-08 14:53:31","1449557611806","Synced","Normal Walk"
"83","36.8992","36.8292","1013.07","34.9703","97.7632","2.43739","0.481278","-19.7105","-2.30491","-26.2715","0.0599698","0.0215777","1.00915","-0.00171896","0.0124031","-0.504739","2015-12-08 14:53:32","1449557612009","Synced","Normal Walk"
"84","36.8812","36.8333","1013.07","36.218","90.1484","358.507","359.291","-20.287","-0.370089","-26.0432","-0.0484864","-0.015057","1.01183","-0.240873","0.0460007","-2.19195","2015-12-08 14:53:32","1449557612219","Synced","Normal Walk"
"85","36.9172","36.8354","1013.08","34.6644","72.6211","355.811","358.736","-11.0659","3.49382","-24.6452","-0.0709204","-0.067633","1.00671","-0.512402","0.00843249","-3.24355","2015-12-08 14:53:32","1449557612422","Synced","Normal Walk"
"86","36.8812","36.8396","1013.08","35.479","49.2406","0.569701","359.972","-1.23161","0.847479","-23.6384","0.127709","-0.0419621","1.00427","0.157106","-0.224307","-0.757027","2015-12-08 14:53:32","1449557612631","Synced","Normal Walk"
"87","36.9352","36.8396","1013.07","35.0047","206.8","356.967","1.09882","1.59358","-0.235883","-23.5105","0.00485585","0.0307906","1.03864","-0.618387","0.782399","0.0105255","2015-12-08 14:53:32","1449557612838","Synced","Normal Walk"
"88","36.9892","36.8417","1013.06","35.3621","305.046","2.92917","358.427","1.10937","0.977292","-23.5195","-0.0115788","0.00630359","0.998182","-0.0878914","0.210092","-0.0274839","2015-12-08 14:53:33","1449557613042","Synced","Normal Walk"
"89","36.9532","36.8396","1013.06","34.3069","271.459","8.43389","359.727","0.714825","-0.00656978","-25.784","0.143248","0.0814618","0.95846","-0.103733","-0.133594","-0.292158","2015-12-08 14:53:33","1449557613248","Synced","Normal Walk"
"90","36.9532","36.8458","1013.05","35.1043","283.394","17.4832","352.269","2.38191","-1.0305","-28.6407","0.272899","0.218201","0.988191","-1.96993","1.56492","0.0878","2015-12-08 14:53:33","1449557613448","Synced","Normal Walk"
"91","36.9892","38.6021","1013.05","35.039","302.798","13.3251","338.183","4.53831","-3.67912","-31.2049","0.131108","0.287541","0.960653","0.6684","-0.29303","-0.6993","2015-12-08 14:53:33","1449557613654","Synced","Normal Walk"
"92","36.8452","36.8438","1013.05","34.1454","279.215","18.538","343.431","3.50301","-5.97294","-30.08","0.27824","0.260629","0.927267","0.395649","-0.0499051","-0.317815","2015-12-08 14:53:33","1449557613858","Synced","Normal Walk"
"93","36.9532","36.8396","1013.06","35.0218","212.861","8.23491","5.63461","2.00637","-6.66544","-28.3484","0.191078","-0.0814558","0.982342","0.381599","0.192914","0.125063","2015-12-08 14:53:34","1449557614067","Synced","Normal Walk"
"94","37.0432","36.8333","1013.05","34.8912","202.016","8.4431","9.47081","0.431898","-6.34304","-25.9017","0.185494","-0.148101","0.874872","0.966197","0.301342","0.326037","2015-12-08 14:53:34","1449557614273","Synced","Normal Walk"
"95","36.8812","36.8333","1013.07","35.2349","213.866","20.9728","21.7668","0.106935","-5.50282","-26.4466","0.432414","-0.286083","0.689906","-0.13275","1.38196","1.46866","2015-12-08 14:53:34","1449557614477","Synced","Normal Walk"
"96","36.8632","36.8333","1013.08","35.3002","258.723","54.4391","359.541","-4.54182","-4.21866","-28.2579","0.807285","0.136255","0.400638","-0.0362329","4.17178","2.983","2015-12-08 14:53:34","1449557614726","Synced","Normal Walk"
"97","36.8632","36.8333","1013.08","35.2659","266.726","70.3806","344.455","-9.46727","-6.27024","-26.6416","1.01293","0.332151","0.414528","-0.0521154","-0.829064","0.934459","2015-12-08 14:53:34","1449557614927","Synced","Normal Walk"
"98","36.9172","39.6667","1013.09","33.9941","261.694","84.7082","342.354","-10.7458","-8.20878","-27.2514","1.34167","0.416765","0.151579","-0.886557","0.502012","0.29641","2015-12-08 14:53:35","1449557615133","Synced","Normal Walk"
"99","36.9712","36.8354","1013.1","35.644","276.888","57.3833","337.664","-9.60318","-7.11258","-27.9305","0.521518","0.407794","0.287319","-0.284244","0.501401","-0.788486","2015-12-08 14:53:35","1449557615337","Synced","Normal Walk"
"100","36.9352","36.8354","1013.08","35.4377","265.517","82.1842","344.445","-8.03653","-5.64586","-29.6954","1.08383","0.392762","0.154504","-0.328532","-1.55263","-0.0545316","2015-12-08 14:53:35","1449557615538","Synced","Normal Walk"
"101","37.0072","36.8375","1013.08","35.6646","266.325","82.9776","340.145","-8.07138","-6.35096","-31.4989","0.65991","0.355183","0.369688","-1.06951","-0.0593736","0.883757","2015-12-08 14:53:35","1449557615745","Synced","Normal Walk"
"102","36.9172","36.8375","1013.09","35.3174","266.937","88.8353","332.201","-9.38796","-7.18337","-31.5571","0.444796","0.591811","0.0757897","0.347085","-0.00195222","3.77682","2015-12-08 14:53:35","1449557615948","Synced","Normal Walk"
"103","36.9172","36.8312","1013.09","35.4309","295.642","66.7517","311.859","-12.3706","-9.75969","-29.2142","0.650927","0.248507","0.253688","-1.20604","0.905488","0.111624","2015-12-08 14:53:36","1449557616161","Synced","Normal Walk"
"104","36.8632","36.8333","1013.08","35.3415","273.561","70.8562","329.163","-13.9712","-11.6979","-27.3849","0.517877","0.456526","0.158647","-1.5017","-1.5621","3.42587","2015-12-08 14:53:36","1449557616362","Synced","Normal Walk"
"105","36.7912","36.8271","1013.08","34.8294","54.9403","334.785","279.384","-13.9968","-17.8022","-29.769","-0.0238814","0.967359","0.0470335","-0.154435","-0.311966","2.13573","2015-12-08 14:53:36","1449557616585","Synced","Normal Walk"
"106","36.9712","36.825","1013.08","35.2418","102.463","288.185","282.35","-12.9398","-21.2933","-30.4381","-0.272826","0.81874","0.0143781","-0.352661","0.562182","-0.0233775","2015-12-08 14:53:36","1449557616800","Synced","Normal Walk"
"107","36.7912","36.8229","1013.08","35.8949","106.375","290.101","291.842","-12.2883","-22.2765","-29.848","-0.328308","1.03549","0.218596","0.691308","-0.206592","0.612839","2015-12-08 14:53:37","1449557617004","Synced","Normal Walk"
"108","36.9172","36.8167","1013.1","36.7198","102.938","313.059","315.001","-12.4017","-21.9615","-30.7265","-0.221445","0.666484","0.21031","-0.552719","0.0175955","-0.00963301","2015-12-08 14:53:37","1449557617211","Synced","Normal Walk"
"109","36.8632","36.8104","1013.1","36.8229","108.842","287.484","293.467","-11.9072","-21.9682","-29.856","-0.678568","1.27017","0.331184","0.157411","-1.12503","0.069474","2015-12-08 14:53:37","1449557617412","Synced","Normal Walk"
"110","36.8272","36.8229","1013.1","35.2693","119.155","272.763","289.31","-12.1065","-22.0784","-30.5096","-0.369317","0.870623","-0.0298875","-0.326394","-0.29303","-0.377374","2015-12-08 14:53:37","1449557617617","Synced","Normal Walk"
"111","36.8812","36.8167","1013.09","34.2829","118.086","275.265","290.618","-12.488","-21.706","-30.2475","-0.332168","0.937781","0.0324117","-0.00311668","0.0182834","-0.0972057","2015-12-08 14:53:37","1449557617822","Synced","Normal Walk"
"112","36.8632","36.8104","1013.08","35.2487","114.912","277.11","287.832","-12.5188","-21.5994","-30.6211","-0.301291","0.946994","0.0421596","0.0249419","-0.00222085","-0.00160863","2015-12-08 14:53:38","1449557618023","Synced","Normal Walk"
"113","36.8812","36.8083","1013.07","35.4343","120.673","270.2","286.347","-12.5389","-21.6735","-30.3557","-0.270655","0.945539","0.0533696","-0.0108397","-0.0798413","-0.0107276","2015-12-08 14:53:38","1449557618227","Synced","Normal Walk"
"114","36.7912","36.8042","1013.05","35.8364","114.391","277.07","285.747","-12.5934","-21.4513","-30.1666","-0.274756","0.952085","0.0324117","0.0200073","-0.0783726","-0.0139507","2015-12-08 14:53:38","1449557618427","Synced","Normal Walk"
"115","36.9352","36.8042","1013.04","36.0358","115.056","276.251","286.502","-12.5513","-21.4619","-30.6079","-0.286094","0.956934","0.0375293","-0.0158081","0.00702319","-0.00644786","2015-12-08 14:53:38","1449557618681","Synced","Normal Walk"
"116","36.7732","36.8063","1013.02","37.2216","113.828","277.931","286.449","-12.7963","-21.3608","-30.5824","-0.279098","0.948448","0.0419159","-0.0029956","-0.0557748","0.0239374","2015-12-08 14:53:38","1449557618889","Synced","Normal Walk"
"117","36.8632","36.7917","1013.03","35.5305","117.189","274.57","287.854","-12.6245","-21.3137","-30.6109","-0.302256","0.942145","0.0253445","-0.0268831","0.0279037","0.00192589","2015-12-08 14:53:39","1449557619094","Synced","Normal Walk"
"118","36.7912","36.8021","1013.03","36.352","115.286","276.257","287.212","-12.4396","-21.4843","-30.5539","-0.288265","0.952812","0.0314369","-0.0239515","0.01801","0.0118266","2015-12-08 14:53:39","1449557619302","Synced","Normal Walk"
"119","36.7552","36.8","1013.02","37.5172","116.298","275.153","287.256","-12.4707","-21.4346","-30.5657","-0.291642","0.952812","0.0299747","-0.0200671","0.0461765","-0.000721795","2015-12-08 14:53:39","1449557619507","Synced","Normal Walk"
"120","36.8812","36.7958","1013.04","36.3829","116.256","275.407","286.603","-12.4492","-21.6224","-30.061","-0.293813","0.954994","0.027294","0.000537632","-0.0216992","0.0110338","2015-12-08 14:53:39","1449557619716","Synced","Normal Walk"
"121","36.8272","36.7938","1013.05","36.8435","116.034","275.161","287.103","-12.3981","-21.5108","-30.7149","-0.294537","0.949176","0.0258319","0.0117393","-0.0506744","0.0123916","2015-12-08 14:53:39","1449557619920","Synced","Normal Walk"
"122","36.8452","36.7979","1013.06","36.6338","115.842","276.115","287.149","-12.7444","-21.4619","-30.4781","-0.294537","0.954752","0.0394789","-0.00359613","-0.0370354","0.00895335","2015-12-08 14:53:40","1449557620153","Synced","Normal Walk"
"123","36.7732","36.7896","1013.05","36.2042","115.182","276.221","287.238","-12.359","-21.436","-30.5767","-0.290436","0.952328","0.0294873","-0.00470203","0.000632271","0.00278153","2015-12-08 14:53:40","1449557620357","Synced","Normal Walk"
"124","36.7012","36.7812","1013.06","37.036","115.822","275.703","287.348","-12.6232","-21.3586","-30.7983","-0.295743","0.95063","0.0285125","-0.0226201","0.0139443","0.00656531","2015-12-08 14:53:40","1449557620559","Synced","Normal Walk"
"125","36.8992","36.7917","1013.07","36.5239","116.345","275.16","286.924","-12.4039","-21.2394","-30.1235","-0.290918","0.946994","0.0255882","-0.0290457","0.0305404","0.00931345","2015-12-08 14:53:40","1449557620765","Synced","Normal Walk"
"126","36.8452","36.7875","1013.07","36.8985","117.017","274.425","287.034","-12.512","-21.4176","-30.4206","-0.2873","0.945782","0.0233949","-0.0132349","0.0249064","0.00881278","2015-12-08 14:53:40","1449557620970","Synced","Normal Walk"
"127","36.8452","36.7875","1013.06","37.744","115.671","276.197","286.869","-12.595","-21.3438","-30.1528","-0.290677","0.951115","0.0316806","-0.00436133","0.00246382","0.000354242","2015-12-08 14:53:41","1449557621177","Synced","Normal Walk"
"128","36.8632","36.7833","1013.07","36.218","116.068","275.679","287.151","-12.5321","-21.4486","-30.3337","-0.291401","0.949903","0.0287562","-0.0141509","0.00583711","0.00613506","2015-12-08 14:53:41","1449557621382","Synced","Normal Walk"
"129","36.8992","36.7812","1013.06","36.7816","115.631","276.245","286.996","-12.5642","-21.3633","-30.1794","-0.290436","0.947721","0.0294873","-0.0247313","0.00360532","0.00978365","2015-12-08 14:53:41","1449557621606","Synced","Normal Walk"
"130","36.8272","36.775","1013.07","35.8192","115.675","276.662","286.908","-12.7135","-21.6003","-30.0015","-0.288747","0.947721","0.0294873","-0.0331096","0.000597022","0.0141132","2015-12-08 14:53:41","1449557621806","Synced","Normal Walk"
"131","36.7912","36.7729","1013.06","37.2147","118.009","274.078","287.651","-12.5932","-21.4823","-30.096","-0.303221","0.941418","0.0204705","-0.0141311","0.0212125","0.00767609","2015-12-08 14:53:42","1449557622011","Synced","Normal Walk"
"132","36.8992","36.7708","1013.06","36.8057","117.673","274.595","288.135","-12.3921","-21.412","-29.8614","-0.307322","0.948206","0.0221764","-0.020372","0.0427543","0.00873741","2015-12-08 14:53:42","1449557622215","Synced","Normal Walk"
"133","36.8272","36.7812","1013.06","36.761","117.337","274.981","287.223","-12.7436","-21.6189","-30.0279","-0.300809","0.945782","0.0233949","-0.00792567","0.042913","0.00597413","2015-12-08 14:53:42","1449557622424","Synced","Normal Walk"
"134","36.7912","36.7792","1013.06","36.517","117.091","275.222","287.303","-12.594","-21.4884","-29.816","-0.295019","0.950873","0.0226638","-0.0281646","0.0632591","-0.00633252","2015-12-08 14:53:42","1449557622674","Synced","Normal Walk"
"135","36.8092","36.7708","1013.06","36.9054","116.782","276.038","286.083","-12.9168","-21.7203","-29.3093","-0.270897","0.946266","0.0275377","0.000772426","-0.0112876","-0.00680334","2015-12-08 14:53:42","1449557622878","Synced","Normal Walk"
"136","36.8092","36.7729","1013.05","36.8573","117.19","275.678","287.902","-12.7155","-21.5175","-29.7504","-0.291883","0.95257","0.0270504","-0.0371293","0.0663859","-0.0110125","2015-12-08 14:53:43","1449557623084","Synced","Normal Walk"
"137","36.7912","36.7708","1013.06","36.9569","117.303","275.177","286.773","-12.8934","-21.1643","-29.6446","-0.287783","0.957904","0.0253445","-0.0403679","0.0701592","-0.0249557","2015-12-08 14:53:43","1449557623285","Synced","Normal Walk"
"138","36.8092","36.7667","1013.06","38.1462","118.506","273.623","285.483","-12.9222","-21.3564","-29.2581","-0.278133","0.949418","0.00852939","-0.128448","0.0510456","-0.0454997","2015-12-08 14:53:43","1449557623491","Synced","Normal Walk"
"139","36.8272","36.7729","1013.05","36.6304","122.529","270.269","287.904","-12.8332","-21.2253","-29.1375","-0.333374","0.948691","0.00852939","-0.0985411","0.319057","-0.0581968","2015-12-08 14:53:43","1449557623703","Synced","Normal Walk"
"140","36.6472","36.7708","1013.05","37.5584","107.511","290.79","290.968","-12.7393","-21.0565","-27.5053","-0.342058","0.910384","0.135739","-0.180702","0.565542","-0.238402","2015-12-08 14:53:43","1449557623904","Synced","Normal Walk"
"141","36.8092","36.7604","1013.05","38.0328","134.28","261.299","291.993","-12.9679","-20.3119","-25.9871","-0.213967","0.885413","-0.18053","-0.758581","1.28545","-0.417386","2015-12-08 14:53:44","1449557624110","Synced","Normal Walk"
"142","36.7912","36.7604","1013.05","37.3075","168.979","222.433","280.692","-12.3994","-18.5283","-21.4104","-0.0796045","0.985058","-0.147027","-0.715515","1.42259","-0.170901","2015-12-08 14:53:44","1449557624314","Synced","Normal Walk"
"143","36.7372","36.7625","1013.07","36.187","213.602","170.198","280.954","-9.68384","-17.7171","-17.734","0.0898333","0.975845","-0.0698983","-0.518511","1.32485","0.0664197","2015-12-08 14:53:44","1449557624519","Synced","Normal Walk"
"144","36.8272","36.7604","1013.06","36.9741","137.541","259.301","287.323","-8.12358","-16.595","-15.8476","-0.182126","1.18944","0.0268067","-0.566158","0.711844","0.394454","2015-12-08 14:53:44","1449557624720","Synced","Normal Walk"
"145","36.8452","36.7521","1013.07","37.2766","163.701","225.577","279.625","-7.58763","-17.3454","-15.0685","-0.298155","1.3109","-0.394082","2.00222","0.141296","-0.706019","2015-12-08 14:53:44","1449557624927","Synced","Normal Walk"
"146","36.6832","36.7542","1013.06","37.0016","259.894","110.959","285.09","-8.94192","-21.4592","-17.0241","0.00606981","0.50259","0.0163277","1.48726","-1.53003","-0.662953","2015-12-08 14:53:45","1449557625133","Synced","Normal Walk"
"147","36.7732","36.7625","1013.06","36.7095","59.0939","6.17705","303.109","-10.8861","-21.8735","-19.4415","0.149075","2.07679","0.641654","0.863266","-0.754538","-0.70663","2015-12-08 14:53:45","1449557625337","Synced","Normal Walk"
"148","36.7552","36.75","1013.05","36.5892","165.317","224.811","349.32","-10.2095","-22.2703","-19.8816","-0.040526","0.213595","-0.229941","-2.92471","1.48978","0.104293","2015-12-08 14:53:45","1449557625546","Synced","Normal Walk"
"149","36.7732","36.7521","1013.05","36.9088","209.667","171.629","277.623","-7.57389","-18.7419","-16.2218","0.0143248","1.06943","0.00682351","-1.22162","0.533471","0.392927","2015-12-08 14:53:45","1449557625750","Synced","Normal Walk"
"150","36.7732","36.7542","1013.04","37.0635","183.631","198.056","275.219","-6.16513","-17.4702","-15.2425","0.348407","1.16229","-0.0790574","-0.163904","-0.0960255","0.694695","2015-12-08 14:53:45","1449557625950","Synced","Normal Walk"
"151","36.7192","36.7479","1013.05","37.1013","161.619","229.544","295.119","-7.20414","-19.1161","-15.9456","-0.624775","1.0447","-0.354553","2.29208","0.200244","-0.98213","2015-12-08 14:53:46","1449557626154","Synced","Normal Walk"
"152","36.8092","36.75","1013.05","36.9363","174.145","212.158","281.198","-8.79652","-22.0327","-18.6911","-0.0723678","0.590356","-0.120996","2.15402","-1.44695","-0.571018","2015-12-08 14:53:46","1449557626355","Synced","Normal Walk"
"153","36.7552","36.7542","1013.05","37.1529","40.9485","355.118","284.677","-10.5148","-22.5432","-21.5431","-0.346883","0.688789","0.988678","0.637552","-0.453076","0.473256","2015-12-08 14:53:46","1449557626636","Synced","Normal Walk"
"154","36.8272","36.7458","1013.05","37.0429","164.268","223.346","285.123","-8.4664","-20.9527","-18.9851","-0.288265","1.30654","-0.0891806","-2.27047","1.36944","-0.0221558","2015-12-08 14:53:46","1449557626836","Synced","Normal Walk"
"155","36.7372","39.2625","1013.05","36.9398","186.63","191.497","274.15","-5.48501","-17.9769","-16.2883","-0.0258112","0.826256","-0.0920729","-1.06585","0.718869","0.63819","2015-12-08 14:53:47","1449557627049","Synced","Normal Walk"
"156","36.8092","36.7458","1013.06","35.2384","258.448","109.405","276.94","-4.12514","-16.8102","-15.4088","-0.193946","1.2452","0.156941","-0.0796043","-0.137564","0.27106","2015-12-08 14:53:47","1449557627249","Synced","Normal Walk"
"157","36.7012","36.7438","1013.06","37.1391","134.705","260.623","298.943","-4.4493","-18.736","-16.3395","-0.644314","1.38897","0.0621427","1.58653","0.0631049","-0.641879","2015-12-08 14:53:47","1449557627454","Synced","Normal Walk"
"158","36.7552","36.7375","1013.06","37.5447","147.81","241.29","291.843","-6.22847","-22.0725","-19.0374","-0.302015","0.208503","0.115269","0.574327","-1.35532","0.00319516","2015-12-08 14:53:47","1449557627658","Synced","Normal Walk"
"159","36.7192","36.7333","1013.06","36.1664","39.2642","356.872","289.258","-7.84061","-21.9859","-19.6747","-0.306116","1.21829","0.751074","1.03309","-0.91825","-0.140358","2015-12-08 14:53:47","1449557627866","Synced","Normal Walk"
"160","36.6652","36.7396","1013.06","37.4072","197.601","177.401","289.551","-6.70861","-19.8617","-18.4926","-0.121095","1.22435","-0.17113","-2.3566","1.1758","-0.18434","2015-12-08 14:53:48","1449557628071","Synced","Normal Walk"
"161","36.7012","36.7375","1013.04","37.0566","259.651","111.156","272.477","-3.99708","-16.1433","-17.2915","0.00412747","0.960813","-0.00457954","-1.01973","0.899379","0.226772","2015-12-08 14:53:48","1449557628279","Synced","Normal Walk"
"162","36.7552","36.7375","1013.03","38.1118","303.005","61.8634","274.301","-2.46618","-13.738","-18.4689","-0.0463154","1.19089","0.0521511","-0.277219","0.355709","0.169351","2015-12-08 14:53:48","1449557628483","Synced","Normal Walk"
"163","36.7372","36.7396","1013.04","36.8813","129.893","253.64","309.732","-0.835721","-15.0766","-17.874","-0.684599","1.25805","-0.0551955","1.7759","0.548132","-0.385926","2015-12-08 14:53:48","1449557628684","Synced","Normal Walk"
"164","36.6832","36.7333","1013.05","38.0465","125.052","251.166","285.728","-1.07252","-18.9935","-18.0291","-0.19081","0.344516","0.0584872","0.941762","-0.768283","0.224328","2015-12-08 14:53:48","1449557628889","Synced","Normal Walk"
"165","36.7192","36.7333","1013.06","37.4656","60.6658","328.935","289.992","-2.72497","-19.1116","-17.8006","-0.549754","1.45977","0.591452","1.19283","-0.820206","-0.0270427","2015-12-08 14:53:49","1449557629096","Synced","Normal Walk"
"166","36.8452","36.7333","1013.06","36.5273","149.737","233.205","334.352","-1.78731","-18.2029","-16.9463","0.126738","0.238324","-0.232593","-2.44793","1.13975","-0.289409","2015-12-08 14:53:49","1449557629303","Synced","Normal Walk"
"167","36.7732","36.7292","1013.06","37.2457","126.128","238.99","279.395","0.267299","-14.3456","-17.1724","-0.145942","1.07743","0.00438654","-1.28087","0.862728","0.38407","2015-12-08 14:53:49","1449557629509","Synced","Normal Walk"
"168","36.6652","36.7354","1013.06","37.4484","133.575","228.067","278.73","0.699656","-12.2704","-19.1033","0.00291351","1.23744","-0.0532673","-0.272943","0.17642","0.661097","2015-12-08 14:53:49","1449557629713","Synced","Normal Walk"
"169","36.6832","36.7271","1013.05","37.7372","139.15","229.904","309.526","1.20412","-13.6588","-18.267","-0.941746","1.09125","-0.217408","2.11035","0.781177","-0.313233","2015-12-08 14:53:49","1449557629921","Synced","Normal Walk"
"170","36.6472","36.7375","1013.05","37.5825","128.545","238.76","290.097","1.81502","-17.152","-18.9884","-0.208178","0.384277","-0.105571","1.46772","-1.13083","-0.289409","2015-12-08 14:53:50","1449557630129","Synced","Normal Walk"
"171","36.7192","36.7271","1013.05","37.3006","58.0004","342.159","307.397","0.481316","-17.6675","-18.2839","-0.359185","1.84429","0.526141","1.27285","-1.27438","-0.043536","2015-12-08 14:53:50","1449557630332","Synced","Normal Walk"
"172","36.8632","36.7313","1013.04","38.1187","127.657","231.237","276.947","1.81574","-15.6455","-19.7321","-0.29526","1.18799","-0.106776","-2.15716","0.858146","0.306184","2015-12-08 14:53:50","1449557630602","Synced","Normal Walk"
"173","36.7912","36.7188","1013.05","36.6854","157.575","196.475","277.717","2.88373","-13.3128","-21.7622","-0.070438","0.875715","-0.0315747","-1.24025","0.306229","0.619253","2015-12-08 14:53:50","1449557630806","Synced","Normal Walk"
"174","36.7732","36.725","1013.06","36.6407","52.483","307.766","283.528","2.57103","-12.4889","-22.9096","-0.251357","1.42946","0.232974","0.954285","0.335856","0.129339","2015-12-08 14:53:51","1449557631011","Synced","Normal Walk"
"175","36.7552","36.725","1013.06","37.3281","103.445","268.962","295.82","2.19053","-16.3051","-22.9911","-0.419974","1.08155","-0.140761","1.82966","0.406106","-0.90058","2015-12-08 14:53:51","1449557631212","Synced","Normal Walk"
"176","36.7552","36.7292","1013.06","39.2564","115.394","289.425","322.957","-0.225803","-19.4227","-24.0664","-0.401882","0.298451","0.139151","-0.473002","-1.22338","-0.479083","2015-12-08 14:53:51","1449557631411","Synced","Normal Walk"
"177","36.7732","36.7271","1013.05","37.0704","142.137","330.074","353.256","-2.17117","-20.8305","-24.7397","-0.873238","-0.179943","0.0282688","-1.47177","0.724977","0.404534","2015-12-08 14:53:51","1449557631632","Synced","Normal Walk"
"178","36.6832","36.7271","1013.06","37.4519","124.708","252.557","286.113","-2.49281","-20.1201","-22.4938","-0.428176","0.67109","-0.0443493","-2.0078","0.834628","0.254566","2015-12-08 14:53:51","1449557631857","Synced","Normal Walk"
"179","36.7552","36.7229","1013.06","37.4897","114.131","261.436","284.355","-1.22982","-18.93","-19.9299","-0.428176","0.953297","0.0075546","-1.2152","0.506593","0.799763","2015-12-08 14:53:52","1449557632079","Synced","Normal Walk"
"180","36.7192","36.7188","1013.06","37.7131","103.039","263.996","274.299","-0.893801","-19.2858","-18.6798","-0.0185744","1.25732","-0.00385646","2.92219","-0.393517","-0.7274","2015-12-08 14:53:52","1449557632279","Synced","Normal Walk"
"181","36.7012","36.7313","1013.05","37.5584","126.841","265.963","299.346","-2.47062","-22.3379","-19.2803","-0.136293","0.664059","-0.111114","2.11585","-0.434445","-0.234431","2015-12-08 14:53:52","1449557632492","Synced","Normal Walk"
"182","36.7012","36.7188","1013.07","38.6239","119.152","311.995","314.034","-4.49767","-24.4443","-19.7818","-0.390545","0.602236","0.509814","-0.620525","-0.452771","0.351083","2015-12-08 14:53:52","1449557632692","Synced","Normal Walk"
"183","36.7552","36.7271","1013.07","37.634","142.378","274.388","351.224","-4.9571","-25.0684","-19.1799","-1.34604","2.67224","-0.0161489","-1.21368","1.06034","0.209668","2015-12-08 14:53:52","1449557632904","Synced","Normal Walk"
"184","36.7372","36.7188","1013.08","36.022","140.103","256.121","307.044","-1.78906","-20.6424","-14.7827","-0.270655","0.550352","-0.189931","-1.76468","0.930228","0.195007","2015-12-08 14:53:53","1449557633111","Synced","Normal Walk"
"185","36.7552","36.7188","1013.08","37.8403","126.474","252.809","292.895","0.622677","-17.1688","-13.8928","-0.428176","1.019","-0.0498929","-1.15778","0.509037","0.756087","2015-12-08 14:53:53","1449557633311","Synced","Normal Walk"
"186","36.6652","38.1708","1013.08","37.5997","5.76956","347.566","274.154","1.82243","-15.8174","-14.5722","-0.107346","1.2309","-0.0744778","3.03917","-0.354116","-0.649514","2015-12-08 14:53:53","1449557633517","Synced","Normal Walk"
"187","36.7912","36.7208","1013.08","37.3625","116.361","244.898","278.918","2.55075","-21.1061","-15.3083","-0.11603","0.776069","-0.146545","2.71999","-1.20108","-0.584152","2015-12-08 14:53:53","1449557633728","Synced","Normal Walk"
"188","36.8092","36.7188","1013.07","38.5311","137.788","308.28","323.246","-0.433303","-24.3866","-15.7324","-0.415873","0.591326","0.48057","-0.940924","-0.515079","0.26434","2015-12-08 14:53:53","1449557633930","Synced","Normal Walk"
"189","36.7192","36.7208","1013.07","37.6994","148.706","260.957","344.711","-0.892605","-24.3248","-15.1133","-0.881198","-0.0745444","0.0275377","-2.06614","0.549965","-0.22985","2015-12-08 14:53:54","1449557634133","Synced","Normal Walk"
"190","36.7012","36.7083","1013.07","36.2214","118.494","263.747","299.585","3.22186","-18.6924","-14.0558","-0.536728","0.756916","-0.0855651","-1.53591","0.651674","0.17271","2015-12-08 14:53:54","1449557634341","Synced","Normal Walk"
"191","36.8452","36.7125","1013.07","37.1047","101.674","263.161","296.479","5.50978","-14.6424","-15.1803","-0.319142","1.00591","-0.0985807","-0.892971","0.393278","0.678812","2015-12-08 14:53:54","1449557634590","Synced","Normal Walk"
"192","36.6832","36.7167","1013.08","37.3831","10.609","328.034","273.66","6.23835","-13.754","-15.4929","-0.0287059","1.33782","-0.067729","3.39439","-0.923137","-0.611946","2015-12-08 14:53:54","1449557634798","Synced","Normal Walk"
"193","36.8092","36.7208","1013.1","37.4519","110.106","251.623","288.426","5.34905","-19.5637","-15.5341","-0.256906","0.79692","-0.133289","2.24962","-1.2582","-0.749085","2015-12-08 14:53:55","1449557635003","Synced","Normal Walk"
"194","36.7372","36.7104","1013.1","37.6478","138.844","303.342","324.658","1.19864","-23.6942","-15.3115","-0.392233","0.480528","0.395276","-0.451316","-1.18153","0.0676414","2015-12-08 14:53:55","1449557635207","Synced","Normal Walk"
"195","36.7192","36.7208","1013.11","37.5687","149.153","257.813","346.174","-0.85065","-24.3911","-15.2466","-1.4242","1.38243","0.293898","-1.66113","0.312338","0.367882","2015-12-08 14:53:55","1449557635408","Synced","Normal Walk"
"196","36.7012","36.7167","1013.11","37.4588","130.888","265.818","300.523","-0.324834","-20.4889","-13.3698","-0.328308","0.600296","-0.143653","-1.15687","-0.34648","0.358719","2015-12-08 14:53:55","1449557635620","Synced","Normal Walk"
"197","36.8092","36.7125","1013.12","37.1185","125.087","260.491","287.547","-1.09948","-17.0807","-11.7902","-0.369317","0.972935","-0.0392877","-0.896942","-0.188877","0.697138","2015-12-08 14:53:55","1449557635821","Synced","Normal Walk"
"198","36.7372","36.7062","1013.11","37.0704","69.4768","309.245","275.901","-2.19962","-17.4562","-11.8161","-0.0537934","1.29539","-0.113765","3.45364","-0.832424","-0.231988","2015-12-08 14:53:56","1449557636042","Synced","Normal Walk"
"199","36.7732","36.6958","1013.1","37.5722","139.995","251.041","289.459","-3.66886","-23.7882","-15.3747","-0.212038","0.880564","-0.130155","2.41883","-1.54194","-1.00198","2015-12-08 14:53:56","1449557636250","Synced","Normal Walk"
"200","36.7012","36.7083","1013.1","37.5034","138.019","303.224","343.871","-7.97224","-26.6343","-20.8742","-0.318901","0.378216","0.646771","-0.342887","-1.08349","0.184011","2015-12-08 14:53:56","1449557636464","Synced","Normal Walk"
"201","36.7372","36.7167","1013.11","36.9432","136.402","278.193","322.451","-8.36051","-26.235","-21.8345","-0.483658","0.885897","-0.211141","-1.78178","1.22619","-0.0129928","2015-12-08 14:53:56","1449557636687","Synced","Normal Walk"
"202","36.7192","36.7167","1013.11","37.1529","146.441","253.971","302.744","-7.01824","-23.2245","-17.3895","-0.245568","0.958631","-0.184387","-1.67457","0.537747","0.230437","2015-12-08 14:53:56","1449557636888","Synced","Normal Walk"
"203","36.7552","36.7042","1013.12","37.1013","135.908","267.209","297.933","-5.77362","-20.6797","-15.2429","-0.482934","1.08664","-0.103883","-0.929623","0.43054","0.612228","2015-12-08 14:53:57","1449557637094","Synced","Normal Walk"
"204","36.7552","36.7083","1013.13","37.1597","62.6543","322.091","277.154","-4.40894","-20.3799","-15.1193","-0.196599","1.30945","0.0175462","2.97472","-0.292724","-0.747253","2015-12-08 14:53:57","1449557637298","Synced","Normal Walk"
"205","36.6112","36.7062","1013.12","35.8467","138.272","254.451","293.277","-5.13797","-24.5418","-18.9326","-0.165963","0.782858","-0.067729","2.35164","-0.584107","-0.699605","2015-12-08 14:53:57","1449557637503","Synced","Normal Walk"
"206","36.7552","36.7021","1013.11","37.885","126.684","322.211","327.331","-7.37165","-26.3329","-22.9495","-0.294054","0.476164","0.625813","-0.960472","-0.761563","0.133004","2015-12-08 14:53:57","1449557637711","Synced","Normal Walk"
"207","36.6652","36.7146","1013.12","37.6237","143.194","262.201","332.826","-7.93595","-26.6328","-22.7581","-0.570258","1.30509","0.0277814","-1.44061","1.1758","-0.224658","2015-12-08 14:53:57","1449557637919","Synced","Normal Walk"
"208","36.7372","36.7062","1013.11","38.0534","141.646","258.022","295.103","-7.23765","-23.4754","-17.4263","-0.275962","0.892686","-0.176433","-2.04964","0.767127","0.167212","2015-12-08 14:53:58","1449557638123","Synced","Normal Walk"
"209","36.6652","36.7021","1013.1","37.2319","133.746","266.555","292.979","-5.50126","-20.6439","-14.9216","-0.397782","1.11283","-0.0739958","-1.21337","0.516672","0.72707","2015-12-08 14:53:58","1449557638324","Synced","Normal Walk"
"210","36.6832","36.7","1013.1","37.665","160.318","229.579","297.016","-5.34601","-22.8734","-15.2873","-0.868172","0.971966","-0.411436","2.158","0.598223","-0.80498","2015-12-08 14:53:58","1449557638578","Synced","Normal Walk"
"211","36.7552","36.7062","1013.11","37.3591","144.204","249.197","292.742","-6.99456","-26.3281","-20.2867","-0.297914","0.395429","-0.0636315","2.20931","-1.13938","-0.274443","2015-12-08 14:53:58","1449557638778","Synced","Normal Walk"
"212","36.6472","38.8771","1013.1","37.5137","116.656","328.244","317.846","-8.36999","-26.729","-22.9968","-0.553372","1.65275","0.949687","0.691308","-0.956429","0.111318","2015-12-08 14:53:58","1449557638991","Synced","Normal Walk"
"213","36.7372","36.7062","1013.09","38.1565","186.974","191.877","286.409","-8.39518","-25.8637","-22.2031","0.134993","0.622844","-0.270434","-2.1425","0.556379","-0.119894","2015-12-08 14:53:59","1449557639199","Synced","Normal Walk"
"214","36.7012","36.7","1013.07","37.9812","140.393","249.944","283.312","-6.78094","-22.7197","-17.7674","-0.155832","1.03646","-0.0580879","-1.36914","0.597612","0.367576","2015-12-08 14:53:59","1449557639403","Synced","Normal Walk"
"215","36.7012","36.6979","1013.08","36.9123","193.276","185.333","274.775","-5.65732","-20.9309","-15.5876","-0.0817756","1.22799","-0.0537494","-0.238124","0.0282856","0.156828","2015-12-08 14:53:59","1449557639603","Synced","Normal Walk"
"216","36.6652","36.7021","1013.08","37.091","156.823","234.93","315.637","-5.58303","-22.7647","-17.8563","-1.01604","1.011","-0.152812","1.94511","0.610135","-0.432963","2015-12-08 14:53:59","1449557639809","Synced","Normal Walk"
"217","36.6652","36.7062","1013.08","36.2317","143.07","248.136","292.985","-7.10657","-24.6323","-21.5401","-0.2598","0.428887","-0.0585699","1.7591","-1.45031","-0.439988","2015-12-08 14:54:00","1449557640016","Synced","Normal Walk"
"218","36.6832","36.6979","1013.08","37.4519","99.4035","335.682","310.708","-8.53446","-25.1005","-23.3821","-0.305874","1.6256","0.832225","0.405423","-1.04378","-0.272305","2015-12-08 14:54:00","1449557640224","Synced","Normal Walk"
"219","36.7372","36.6937","1013.1","38.3971","192.497","183.097","307.279","-8.30989","-24.1819","-21.6054","-0.0622363","0.962753","-0.193546","-2.46259","0.610135","-0.295213","2015-12-08 14:54:00","1449557640429","Synced","Normal Walk"
"220","36.7012","36.6979","1013.1","37.7372","137.128","256.708","286.392","-7.27397","-20.9531","-17.5249","-0.276204","0.89511","-0.0465185","-1.21062","0.274159","0.471423","2015-12-08 14:54:00","1449557640636","Synced","Normal Walk"
"221","36.7192","36.6958","1013.11","37.4347","215.986","162.547","273.72","-5.99223","-18.8065","-15.671","0.0733234","1.21077","0.026563","-0.161155","0.0456953","0.20814","2015-12-08 14:54:00","1449557640841","Synced","Normal Walk"
"222","36.6832","36.6854","1013.11","38.4968","143.58","259.972","311.34","-6.68852","-21.5173","-17.2237","-0.788326","1.24981","-0.0619443","1.36601","0.961688","-0.949449","2015-12-08 14:54:01","1449557641066","Synced","Normal Walk"
"223","36.7552","36.6917","1013.12","37.1082","140.027","265.656","309.697","-8.00005","-23.6364","-19.4117","-0.406466","0.238082","0.088462","1.0676","-0.887707","-0.0685815","2015-12-08 14:54:01","1449557641270","Synced","Normal Walk"
"224","36.6652","36.7","1013.11","39.9266","76.8487","331.907","291.535","-9.35657","-23.56","-20.6524","-0.639731","1.6079","0.746687","1.29515","-0.92894","-0.256728","2015-12-08 14:54:01","1449557641479","Synced","Normal Walk"
"225","36.6292","36.6917","1013.11","37.555","155.035","236.432","281.212","-9.06605","-21.7897","-17.969","-0.379931","1.12859","-0.084119","-1.72894","-0.0331063","0.142472","2015-12-08 14:54:01","1449557641695","Synced","Normal Walk"
"226","36.6292","39.5938","1013.11","37.8025","157.089","234.762","283.139","-7.70351","-19.0933","-15.3094","-0.126161","0.825043","-0.105329","-1.27965","0.0951754","0.502577","2015-12-08 14:54:01","1449557641900","Synced","Normal Walk"
"227","36.7372","36.6833","1013.09","37.9468","126.121","265.413","274.702","-7.37343","-17.6126","-14.2021","-0.211555","1.32206","0.0355797","0.436271","-0.147949","0.157744","2015-12-08 14:54:02","1449557642107","Synced","Normal Walk"
"228","36.7732","36.6917","1013.09","37.8403","138.419","267.968","299.497","-7.48786","-20.6317","-15.4915","-0.636354","1.33636","-0.112319","1.96954","0.671221","-0.890195","2015-12-08 14:54:02","1449557642310","Synced","Normal Walk"
"229","36.7192","36.6917","1013.09","37.4244","128.14","301.115","320.028","-9.83611","-23.6285","-19.4438","-0.341335","0.667454","0.559528","0.183068","-0.682151","-0.104623","2015-12-08 14:54:02","1449557642560","Synced","Normal Walk"
"230","36.6652","36.6854","1013.1","38.1221","131.64","303.931","337.17","-10.8854","-24.2845","-21.4658","-0.936921","-0.00493671","0.169613","-2.38837","0.671221","-0.305597","2015-12-08 14:54:02","1449557642761","Synced","Normal Walk"
"231","36.6652","36.6833","1013.08","37.5344","143.902","258.394","296.36","-9.36067","-19.8974","-16.8796","-0.622363","0.69485","-0.0783343","-1.98337","0.642205","0.0459557","2015-12-08 14:54:02","1449557642967","Synced","Normal Walk"
"232","36.6652","36.6854","1013.08","37.7647","132.37","262.744","281.337","-7.75463","-16.356","-14.9176","-0.262936","0.858016","-0.0583289","-1.08631","0.529501","0.589931","2015-12-08 14:54:03","1449557643172","Synced","Normal Walk"
"233","36.6652","36.6937","1013.08","36.5135","110.051","293.395","289.763","-6.90664","-15.4877","-14.3958","-0.244362","1.40861","0.145","0.948482","0.313254","0.212416","2015-12-08 14:54:03","1449557643376","Synced","Normal Walk"
"234","36.7372","36.6875","1013.09","37.366","134.64","265.819","296.566","-6.39844","-18.738","-15.8435","-0.794116","1.10095","-0.100991","2.31193","0.204826","-0.562161","2015-12-08 14:54:03","1449557643576","Synced","Normal Walk"
"235","36.7192","36.6854","1013.09","37.2594","141.062","271.338","322.519","-7.71198","-22.1989","-17.6467","-0.377277","0.252629","0.275621","-0.446734","-1.02118","-0.365157","2015-12-08 14:54:03","1449557643781","Synced","Normal Walk"
"236","36.7012","36.6854","1013.08","37.5481","131.638","346.308","332.298","-9.40103","-22.2417","-19.0398","-0.336269","0.103524","0.426226","-0.34136","-0.0746452","0.243571","2015-12-08 14:54:03","1449557643987","Synced","Normal Walk"
"237","36.7012","36.6833","1013.08","37.3797","161.921","226.6","275.649","-8.6348","-18.8555","-17.0394","-0.436619","1.11525","-0.0848421","-1.6874","-0.106105","0.182484","2015-12-08 14:54:04","1449557644188","Synced","Normal Walk"
"238","36.6472","39.5875","1013.08","37.8162","146.062","245.077","283.416","-7.66655","-15.8477","-16.2531","-0.149078","0.888807","-0.0366363","-1.18985","0.0643267","0.47967","2015-12-08 14:54:04","1449557644401","Synced","Normal Walk"
"239","36.6292","36.6771","1013.07","37.3419","106.989","288.26","284.866","-7.28462","-14.8473","-16.5239","-0.219033","1.33757","0.146706","0.246292","0.289125","0.408504","2015-12-08 14:54:04","1449557644601","Synced","Normal Walk"
"240","36.6652","36.6813","1013.07","37.0979","135.156","268.758","308.969","-7.12165","-17.5952","-16.9536","-0.65324","1.37418","-0.000482057","1.67511","0.651674","-1.07254","2015-12-08 14:54:04","1449557644807","Synced","Normal Walk"
"241","36.6832","36.6729","1013.07","38.1462","135.768","269.25","308.178","-8.34584","-20.8218","-19.2198","-0.331444","0.336515","0.123554","0.639995","-1.33486","-0.209081","2015-12-08 14:54:05","1449557645014","Synced","Normal Walk"
"242","36.6832","36.6875","1013.06","37.5894","74.4168","337.156","296.844","-9.17928","-21.0147","-21.0482","-0.488241","0.599084","0.914594","0.804012","-0.497364","0.117732","2015-12-08 14:54:05","1449557645218","Synced","Normal Walk"
"243","36.6652","36.6729","1013.07","37.5378","145.391","239.402","272.646","-8.15199","-18.8926","-18.8055","-0.261489","1.39309","-0.0788163","-1.8224","-0.0786158","0.0196885","2015-12-08 14:54:05","1449557645423","Synced","Normal Walk"
"244","36.6832","36.6688","1013.07","37.2044","139.657","249.391","283.739","-6.97637","-15.703","-17.055","-0.157038","0.799102","-0.113283","-1.18069","0.00721076","0.490971","2015-12-08 14:54:05","1449557645624","Synced","Normal Walk"
"245","36.7012","36.6771","1013.07","37.2319","123.334","264.467","279.042","-6.53925","-14.5295","-16.3126","-0.274515","1.26217","0.118924","0.145805","0.166341","0.231353","2015-12-08 14:54:05","1449557645839","Synced","Normal Walk"
"246","36.7552","36.675","1013.07","38.0534","135.858","266.218","305.714","-6.16962","-18.2855","-16.5108","-0.712099","1.22169","-0.0848421","1.82599","0.80439","-0.853849","2015-12-08 14:54:06","1449557646043","Synced","Normal Walk"
"247","36.7372","36.675","1013.07","37.8093","134.953","280.84","320.098","-7.76543","-22.4676","-18.7709","-0.492825","0.313483","0.205924","0.519349","-0.990943","-0.449456","2015-12-08 14:54:06","1449557646243","Synced","Normal Walk"
"248","36.6652","36.6729","1013.07","37.6684","131.624","300.469","340.948","-9.2405","-22.962","-21.624","-1.35834","0.590841","0.32631","-0.956196","0.399081","0.229521","2015-12-08 14:54:06","1449557646492","Synced","Normal Walk"
"249","36.6832","36.6729","1013.07","37.366","137.352","274.641","319.86","-8.3109","-20.0833","-17.6","-0.50971","0.61557","-0.0896626","-2.23901","0.693518","0.233186","2015-12-08 14:54:06","1449557646707","Synced","Normal Walk"
"250","36.6292","37.4021","1013.07","37.6375","145.006","246.434","282.973","-7.07866","-17.3726","-15.5108","-0.368111","0.869896","-0.067729","-1.35143","0.16909","0.722794","2015-12-08 14:54:06","1449557646913","Synced","Normal Walk"
"251","36.6652","36.6708","1013.08","38.1462","115.485","280.584","282.525","-6.95059","-16.5448","-14.8944","-0.247498","1.45322","0.0638486","1.85623","0.207575","-0.00841128","2015-12-08 14:54:07","1449557647116","Synced","Normal Walk"
"252","36.6292","36.6708","1013.09","36.8504","139.26","261.187","299.226","-5.79061","-20.124","-15.6372","-0.414426","0.93172","-0.11015","1.85531","0.330664","-0.754889","2015-12-08 14:54:07","1449557647318","Synced","Normal Walk"
"253","36.7192","36.6688","1013.09","36.7748","131.987","307.045","330.746","-7.43479","-23.5038","-19.1312","-0.300567","0.467193","0.498116","-0.294018","-0.913058","-0.254285","2015-12-08 14:54:07","1449557647529","Synced","Normal Walk"
"254","36.5392","36.6646","1013.09","39.4145","136.139","297.007","352.855","-8.27967","-23.6411","-20.8047","-0.943434","0.273479","0.0628738","-1.73261","0.530722","0.185538","2015-12-08 14:54:07","1449557647730","Synced","Normal Walk"
"255","36.7372","36.6625","1013.09","37.6753","136.147","260.649","291.151","-7.20044","-20.4571","-17.3908","-0.490653","0.698972","-0.0626674","-2.18129","0.524003","0.0319058","2015-12-08 14:54:07","1449557647937","Synced","Normal Walk"
"256","36.7372","36.6688","1013.1","37.5722","140.994","248.162","282.835","-6.24242","-17.6026","-15.8636","-0.336751","0.848561","-0.105812","-1.41526","0.125413","0.618947","2015-12-08 14:54:08","1449557648141","Synced","Normal Walk"
"257","36.6292","36.6708","1013.09","37.1769","102.879","285.537","280.01","-5.40692","-16.4685","-15.8267","-0.183573","1.47116","0.096504","1.62166","-0.0153913","0.237462","2015-12-08 14:54:08","1449557648346","Synced","Normal Walk"
"258","36.6292","36.6562","1013.09","36.3417","135.989","257.279","294.619","-5.13754","-20.017","-17.3747","-0.47039","0.974875","-0.146304","2.11157","0.181613","-0.699911","2015-12-08 14:54:08","1449557648546","Synced","Normal Walk"
"259","36.6832","36.6562","1013.09","37.7028","132.693","283.939","326.175","-6.61532","-23.032","-20.6297","-0.35026","0.354698","0.421596","-0.347774","-0.929551","-0.390813","2015-12-08 14:54:08","1449557648751","Synced","Normal Walk"
"260","36.6112","36.6562","1013.07","37.2319","134.091","286.374","7.76335","-7.50733","-22.794","-21.9453","-1.30455","0.894383","0.174974","-2.16754","1.00292","0.635746","2015-12-08 14:54:08","1449557648957","Synced","Normal Walk"
"261","36.6832","36.6667","1013.06","37.9778","135.986","265.771","309.622","-7.04228","-19.8152","-19.0523","-0.445303","0.559323","-0.084601","-1.89601","0.872501","0.0319058","2015-12-08 14:54:09","1449557649158","Synced","Normal Walk"
"262","36.5932","38.1229","1013.07","37.4966","136.765","251.301","286.204","-5.59033","-17.5579","-16.9969","-0.517671","0.903111","-0.00313337","-1.36731","0.390834","0.656516","2015-12-08 14:54:09","1449557649364","Synced","Normal Walk"
"263","36.7372","36.6562","1013.07","37.3041","99.7785","289.711","280.659","-5.64886","-17.1594","-16.3489","-0.306598","1.41855","0.151092","2.56727","0.194136","-0.333697","2015-12-08 14:54:09","1449557649568","Synced","Normal Walk"
"264","36.7012","36.6604","1013.07","38.7511","141.415","251.706","296.322","-5.88324","-20.8695","-18.2416","-0.300326","0.726126","-0.11714","2.42097","-0.284477","-0.566437","2015-12-08 14:54:09","1449557649768","Synced","Normal Walk"
"265","36.6832","36.6583","1013.07","37.4966","128.87","304.392","334.156","-7.60403","-23.1047","-22.0189","-0.341093","0.489498","0.651402","-0.804701","-0.541957","0.0166342","2015-12-08 14:54:09","1449557649980","Synced","Normal Walk"
"266","36.6832","36.6667","1013.07","37.3144","133.604","277.457","358.008","-8.18497","-22.68","-23.119","-1.23652","1.64912","-0.0778522","-1.98092","1.1144","0.318707","2015-12-08 14:54:10","1449557650180","Synced","Normal Walk"
"267","36.6832","36.6583","1013.07","37.6237","155.105","232.332","288.202","-7.52421","-19.4219","-19.2263","-0.201665","1.08446","-0.0684521","-1.47849","0.349601","0.392011","2015-12-08 14:54:10","1449557650438","Synced","Normal Walk"
"268","36.6112","36.6542","1013.06","37.83","142.85","244.382","284.88","-6.85509","-17.4356","-18.5995","-0.100832","1.24035","0.0199831","-0.326699","0.250946","0.542589","2015-12-08 14:54:10","1449557650642","Synced","Normal Walk"
"269","36.7012","36.6604","1013.06","37.8575","149.857","244.623","319.607","-7.60509","-18.7773","-19.0627","-1.11784","0.940205","-0.266337","1.90601","0.916789","-0.702354","2015-12-08 14:54:10","1449557650851","Synced","Normal Walk"
"270","36.7192","36.6583","1013.07","37.5275","142.251","254.97","313.106","-7.98945","-20.5113","-21.1007","-0.349778","0.280752","-0.0807446","1.89563","-1.39534","-0.146467","2015-12-08 14:54:11","1449557651055","Synced","Normal Walk"
"271","36.6292","36.6521","1013.07","34.8019","78.4795","341.077","303.706","-9.4702","-20.9845","-22.232","-0.604512","1.93811","0.698191","1.33699","-0.911531","-0.495271","2015-12-08 14:54:11","1449557651269","Synced","Normal Walk"
"272","36.7192","36.6542","1013.08","38.5174","226.981","139.219","305.681","-9.16778","-19.2553","-19.9191","-0.265831","1.12252","0.00438654","-2.25795","0.268356","-0.173956","2015-12-08 14:54:11","1449557651496","Synced","Normal Walk"
"273","36.6832","36.6458","1013.08","33.7432","140.662","250.752","288.729","-7.63139","-15.8332","-17.8358","-0.266072","0.793768","-0.0438672","-1.20268","0.242088","0.477532","2015-12-08 14:54:11","1449557651711","Synced","Normal Walk"
"274","36.6112","36.6542","1013.08","37.5344","109.579","281.307","282.948","-6.50722","-14.5576","-16.6942","-0.481246","1.26484","0.141832","0.257899","0.248808","0.429274","2015-12-08 14:54:11","1449557651925","Synced","Normal Walk"
"275","36.7192","36.6479","1013.07","37.5653","133.637","268.439","302.633","-6.57896","-18.023","-16.5853","-0.76155","1.14095","-0.158597","2.12684","0.640067","-0.782072","2015-12-08 14:54:12","1449557652125","Synced","Normal Walk"
"276","36.6472","36.6562","1013.07","37.9056","131.602","281.629","316.295","-7.46461","-21.4656","-19.063","-0.448439","0.334818","0.266117","0.396871","-0.919777","-0.305597","2015-12-08 14:54:12","1449557652330","Synced","Normal Walk"
"277","36.5752","36.6458","1013.07","37.1632","95.0771","333.643","307.289","-8.75829","-22.0815","-20.9668","-0.383308","0.231778","0.763746","0.419167","-0.695284","0.305573","2015-12-08 14:54:12","1449557652537","Synced","Normal Walk"
"278","36.6292","36.6437","1013.08","37.5309","129.676","259.001","275.967","-8.16797","-20.0238","-18.1723","-0.470149","0.902141","0.0604368","-1.83645","-0.00134135","0.0551187","2015-12-08 14:54:12","1449557652749","Synced","Normal Walk"
"279","36.6472","36.6417","1013.1","37.5206","141.626","248.084","284.962","-6.87668","-16.9898","-17.0054","-0.180196","0.89705","-0.0708624","-1.28393","0.263774","0.455846","2015-12-08 14:54:12","1449557652955","Synced","Normal Walk"
"280","36.6832","36.6479","1013.11","36.9088","106.652","284.414","281.657","-6.25638","-15.8584","-16.2573","-0.254493","1.39891","0.0292436","0.697416","0.0499713","0.129339","2015-12-08 14:54:13","1449557653162","Synced","Normal Walk"
"281","36.6292","36.6479","1013.11","37.5619","137.042","264.075","299.54","-6.64444","-19.7961","-16.6051","-0.621639","1.05512","-0.11473","2.05262","0.57501","-0.647376","2015-12-08 14:54:13","1449557653368","Synced","Normal Walk"
"282","36.6292","36.6458","1013.12","36.9363","138.551","278.696","333.724","-8.6416","-23.4162","-19.6406","-0.329515","0.248507","0.194226","-0.310206","-1.17329","-0.439377","2015-12-08 14:54:13","1449557653568","Synced","Normal Walk"
"283","36.6832","36.65","1013.12","38.7649","133.913","327.13","345.736","-10.565","-23.8862","-21.96","-0.846703","0.0768554","0.0541007","-0.873424","0.87525","0.0193831","2015-12-08 14:54:13","1449557653773","Synced","Normal Walk"
"284","36.6472","36.6396","1013.1","37.0566","140.308","258.908","288.487","-9.59727","-20.8743","-17.7776","-0.573153","0.770493","-0.101955","-2.04323","0.337689","0.0502318","2015-12-08 14:54:13","1449557653973","Synced","Normal Walk"
"285","36.7192","36.6354","1013.09","36.0117","144.37","248.23","280.78","-7.62256","-17.6937","-15.2545","-0.240261","0.882018","-0.0776112","-1.26713","0.186805","0.490666","2015-12-08 14:54:14","1449557654177","Synced","Normal Walk"
"286","36.6652","36.6375","1013.07","36.1526","75.1923","319.545","277.925","-6.9711","-17.373","-14.2195","-0.0378725","1.45831","-0.0602571","3.29023","-0.28295","-0.426243","2015-12-08 14:54:14","1449557654426","Synced","Normal Walk"
"287","36.5752","36.6375","1013.06","37.8575","147.845","247.815","292.306","-6.99625","-22.1256","-16.5473","-0.215173","0.698002","-0.0865293","2.29972","-0.539208","-0.557274","2015-12-08 14:54:14","1449557654627","Synced","Normal Walk"
"288","36.6472","39.2021","1013.06","37.1632","124.243","313.898","320.364","-9.31874","-24.2343","-19.8842","-0.434207","0.652907","0.515663","-0.356937","-0.483619","0.231659","2015-12-08 14:54:14","1449557654833","Synced","Normal Walk"
"289","36.6472","36.6375","1013.07","36.8435","143.239","261.981","319.584","-10.0147","-24.7566","-21.9802","-0.975276","0.525623","-0.141484","-1.12632","0.950387","0.221885","2015-12-08 14:54:15","1449557655037","Synced","Normal Walk"
"290","36.7192","36.6333","1013.08","37.2594","146.311","263.752","324.952","-9.26666","-21.4441","-17.0503","-0.476421","0.82868","-0.162935","-2.12967","0.505371","0.0691686","2015-12-08 14:54:15","1449557655242","Synced","Normal Walk"
"291","36.5932","36.6396","1013.08","37.1975","142.993","262.093","296.612","-8.43446","-18.5213","-14.5286","-0.515017","0.876684","-0.0479647","-1.40488","0.482769","0.736539","2015-12-08 14:54:15","1449557655442","Synced","Normal Walk"
"292","36.6652","36.6417","1013.09","37.256","75.6022","319.901","276.63","-7.56301","-18.5209","-14.2353","-0.243397","1.31115","-0.033744","3.05444","-0.228889","-0.500158","2015-12-08 14:54:15","1449557655642","Synced","Normal Walk"
"293","36.5932","36.6312","1013.09","37.1907","149.476","244.61","289.595","-6.48998","-22.9024","-15.8859","-0.234954","0.774615","-0.118586","2.29147","-0.256072","-0.465949","2015-12-08 14:54:15","1449557655846","Synced","Normal Walk"
"294","36.6832","36.6271","1013.09","36.9776","119.645","328.855","316.139","-9.0793","-25.4647","-19.3734","-0.384755","0.734369","0.748393","-0.779656","-0.496448","-0.137609","2015-12-08 14:54:16","1449557656054","Synced","Normal Walk"
"295","36.6112","36.6312","1013.08","36.2111","141.389","273.098","325.537","-8.99815","-25.3678","-19.8225","-0.382102","1.72815","-0.179084","-1.5747","1.13304","-0.117451","2015-12-08 14:54:16","1449557656259","Synced","Normal Walk"
"296","36.5932","36.6375","1013.1","38.8095","149.56","253.921","304.136","-7.60247","-21.1637","-15.2964","-0.295984","0.840075","-0.172576","-1.83157","0.732919","0.151635","2015-12-08 14:54:16","1449557656465","Synced","Normal Walk"
"297","36.5932","36.6333","1013.11","37.1013","140.943","260.296","293.718","-6.16762","-17.7407","-13.1859","-0.224099","1.27017","-0.168479","-0.57807","0.47941","0.421027","2015-12-08 14:54:16","1449557656688","Synced","Normal Walk"
"298","36.6472","36.6312","1013.1","37.1769","166.24","220.457","284.696","-5.7485","-19.2341","-13.7678","-0.788326","0.894868","-0.536289","2.67173","0.202993","-0.542613","2015-12-08 14:54:16","1449557656902","Synced","Normal Walk"
"299","36.6472","36.6312","1013.11","37.1425","141.014","253.008","289.438","-5.88036","-23.4694","-16.8172","-0.308528","0.547685","-0.0433851","2.08408","-1.05569","-0.341027","2015-12-08 14:54:17","1449557657102","Synced","Normal Walk"
"300","36.6652","39.2","1013.12","37.799","118.593","339.163","317.75","-8.60014","-24.3022","-19.0507","-0.319866","1.58026","0.942863","0.608535","-1.07158","-0.410971","2015-12-08 14:54:17","1449557657316","Synced","Normal Walk"
"301","36.6112","36.6354","1013.12","37.0119","150.175","248.485","302.877","-8.67186","-23.5453","-19.0941","-0.112411","0.331181","-0.262721","-2.50596","0.806222","-0.284217","2015-12-08 14:54:17","1449557657516","Synced","Normal Walk"
"302","36.5932","36.6354","1013.1","36.737","160.097","232.722","291.312","-7.33677","-19.24","-15.1244","-0.192739","1.11089","-0.136904","-1.47116","0.569818","0.191342","2015-12-08 14:54:17","1449557657728","Synced","Normal Walk"
"303","36.4672","36.6354","1013.09","36.8951","153.026","234.526","283.282","-5.78571","-16.5221","-14.468","-0.0265348","1.37249","-0.18053","-0.547222","0.159622","0.530983","2015-12-08 14:54:17","1449557657929","Synced","Normal Walk"
"304","36.6472","36.6271","1013.08","37.1391","190.274","187.42","291.529","-5.45918","-18.1988","-13.7808","-0.573394","0.98627","-0.442287","2.64821","-0.184906","-0.629661","2015-12-08 14:54:18","1449557658140","Synced","Normal Walk"
"305","36.5932","36.6229","1013.08","36.8469","146.243","253.147","305.376","-6.37702","-23.2945","-17.756","-0.283923","0.335545","-0.0467595","0.917328","-1.04653","-0.0691924","2015-12-08 14:54:18","1449557658390","Synced","Normal Walk"
"306","36.6832","36.6188","1013.05","36.7438","61.7282","343.212","290.164","-7.6044","-23.719","-19.0398","-0.449163","0.836196","0.653839","1.34218","-0.676958","-0.324229","2015-12-08 14:54:18","1449557658591","Synced","Normal Walk"
"307","36.6652","39.5604","1013.05","37.0085","217.516","137.123","311.071","-6.19749","-22.5273","-17.0953","-0.209867","1.52886","-0.112319","-2.26039","-0.0389096","-0.186784","2015-12-08 14:54:18","1449557658804","Synced","Normal Walk"
"308","36.6292","36.6104","1013.06","37.5791","129.685","256.285","279.917","-4.68926","-17.9027","-14.8339","-0.164757","0.807587","-0.0768881","-1.21398","0.366094","0.415529","2015-12-08 14:54:19","1449557659004","Synced","Normal Walk"
"309","36.5392","36.625","1013.07","37.2491","181.642","191.84","271.65","-3.50271","-15.8478","-14.5547","-0.361598","1.20593","0.149874","0.0395144","0.0466116","0.326037","2015-12-08 14:54:19","1449557659216","Synced","Normal Walk"
"310","36.5032","36.625","1013.07","37.1391","139.407","258.9","308.779","-3.24939","-19.7778","-15.6798","-0.986373","1.41588","-0.0959294","1.78781","0.459556","-1.0142","2015-12-08 14:54:19","1449557659416","Synced","Normal Walk"
"311","36.6112","36.6208","1013.07","36.3383","158.736","225.395","309.561","-4.1915","-23.9355","-19.4926","-0.336028","0.233233","0.0251008","0.688864","-1.07097","-0.152881","2015-12-08 14:54:19","1449557659627","Synced","Normal Walk"
"312","36.5932","36.6125","1013.08","36.8263","86.4629","323.182","296.308","-5.75199","-24.4509","-20.881","-0.448921","0.321968","0.767158","1.4778","-1.08654","-0.241762","2015-12-08 14:54:19","1449557659829","Synced","Normal Walk"
"313","36.6292","36.6125","1013.08","37.256","213.916","144.188","302.6","-5.14761","-23.0369","-19.5955","-0.0463154","1.43455","-0.0882165","-2.20144","0.0792929","-0.312928","2015-12-08 14:54:20","1449557660042","Synced","Normal Walk"
"314","36.5932","36.6083","1013.07","36.9329","126.793","254.492","279.905","-3.82112","-19.2732","-16.8517","-0.101074","0.81971","-0.0749599","-1.15778","0.236591","0.331535","2015-12-08 14:54:20","1449557660247","Synced","Normal Walk"
"315","36.5932","36.6146","1013.06","37.3488","154.591","217.921","274.924","-2.96228","-17.7692","-16.2632","-0.274756","1.18435","0.08042","-0.164515","-0.111908","0.287247","2015-12-08 14:54:20","1449557660454","Synced","Normal Walk"
"316","36.6112","36.6208","1013.07","36.7576","142.946","250.595","312.416","-3.73045","-21.0067","-18.3369","-1.02039","1.39164","-0.0858062","1.9671","0.285154","-0.785737","2015-12-08 14:54:20","1449557660660","Synced","Normal Walk"
"317","36.6292","36.6229","1013.07","36.1973","153.549","231.145","304.631","-5.21642","-23.9735","-22.4433","-0.345194","0.250689","-0.017113","0.935959","-1.13419","-0.305903","2015-12-08 14:54:20","1449557660867","Synced","Normal Walk"
"318","36.5572","36.6146","1013.07","37.2319","55.3631","337.967","289.729","-6.21056","-23.8157","-23.1648","-0.23616","0.856077","0.69478","1.596","-0.461628","-0.420134","2015-12-08 14:54:21","1449557661067","Synced","Normal Walk"
"319","36.5752","36.9833","1013.07","35.0871","209.94","157.302","289.865","-6.11022","-22.6309","-21.8242","-0.200941","1.53347","-0.141966","-1.91403","-0.314104","-0.102485","2015-12-08 14:54:21","1449557661280","Synced","Normal Walk"
"320","36.5572","36.6146","1013.07","35.6096","124.229","262.951","281.716","-5.84512","-19.9642","-18.4178","-0.181884","0.907233","0.00877309","-0.986434","0.0799037","0.289996","2015-12-08 14:54:21","1449557661486","Synced","Normal Walk"
"321","36.5212","36.6125","1013.07","36.6201","122.689","261.552","281.366","-4.99299","-18.597","-18.2945","-0.463154","1.20496","0.102596","-0.0200449","0.0655484","0.28908","2015-12-08 14:54:21","1449557661702","Synced","Normal Walk"
"322","36.4672","36.5979","1013.06","36.8813","132.602","265.104","304.664","-5.41756","-20.5242","-19.5478","-0.732121","1.36788","-0.0737547","1.58989","0.63854","-1.1156","2015-12-08 14:54:21","1449557661924","Synced","Normal Walk"
"323","36.5572","36.6104","1013.05","37.1288","141.758","254.187","320.834","-6.43631","-23.0054","-22.859","-0.39947","0.249477","0.0509326","0.698943","-0.934133","-0.191365","2015-12-08 14:54:22","1449557662124","Synced","Normal Walk"
"324","36.5752","36.6104","1013.05","37.2285","132.64","316.236","347.974","-7.74267","-23.5754","-24.161","-1.17598","0.501136","-0.112801","-1.48856","1.19473","-0.170596","2015-12-08 14:54:22","1449557662382","Synced","Normal Walk"
"325","36.5752","36.6042","1013.05","37.036","133.046","270.786","311.393","-7.17971","-21.2233","-20.4686","-0.625981","0.565626","-0.092555","-2.3453","0.696878","0.109486","2015-12-08 14:54:22","1449557662586","Synced","Normal Walk"
"326","36.5932","36.6042","1013.04","36.9913","126.033","261.822","283.632","-5.96168","-18.8905","-18.5702","-0.340852","0.863835","-0.0494109","-1.08326","0.259498","0.623834","2015-12-08 14:54:22","1449557662792","Synced","Normal Walk"
"327","36.5752","36.6063","1013.04","36.3245","90.7153","304.243","287.24","-5.52514","-18.3738","-17.8349","-0.209625","1.52886","0.213478","2.40601","0.00537816","0.168434","2015-12-08 14:54:22","1449557662999","Synced","Normal Walk"
"328","36.6472","36.6125","1013.04","37.0532","135.144","261.088","301.831","-5.78204","-21.2413","-19.6869","-0.400676","0.709882","-0.00192823","2.10852","-0.609152","-0.556663","2015-12-08 14:54:23","1449557663207","Synced","Normal Walk"
"329","36.5572","36.6083","1013.04","36.7988","130.453","296.053","338.465","-7.84067","-22.7776","-22.4721","-0.473768","0.533866","0.507621","-0.624802","-0.0379933","0.192563","2015-12-08 14:54:23","1449557663411","Synced","Normal Walk"
"330","36.5032","36.6063","1013.04","36.8401","131.609","287.397","335.079","-8.1083","-23.1526","-22.7321","-1.28742","0.547443","-0.0826728","-1.29248","0.742998","0.185538","2015-12-08 14:54:23","1449557663611","Synced","Normal Walk"
"331","36.4672","38.8125","1013.05","36.9329","138.204","263.553","310.507","-7.44631","-20.5564","-19.4061","-0.592933","0.754249","-0.194028","-2.08477","0.494681","-0.0215449","2015-12-08 14:54:23","1449557663824","Synced","Normal Walk"
"332","36.5572","36.6083","1013.03","37.7681","145.988","245.772","290.744","-6.85685","-18.3417","-17.0671","-0.418527","0.864077","-0.0862882","-1.27262","0.167257","0.748451","2015-12-08 14:54:24","1449557664032","Synced","Normal Walk"
"333","36.5392","36.6021","1013.04","36.9569","86.1195","301.965","276.831","-6.6181","-18.033","-16.9993","-0.311181","1.45443","0.13842","2.38768","0.0679919","-0.245427","2015-12-08 14:54:24","1449557664237","Synced","Normal Walk"
"334","36.5572","36.6042","1013.04","36.6201","144.799","250.338","298.516","-6.55477","-21.4611","-18.0865","-0.24798","0.728792","-0.0874934","2.1079","-0.149171","-0.6431","2015-12-08 14:54:24","1449557664444","Synced","Normal Walk"
"335","36.5392","36.5938","1013.04","35.2831","122.477","311.017","321.746","-8.27337","-23.311","-21.1081","-0.360391","0.575809","0.667973","-0.532561","-0.612512","-0.0920998","2015-12-08 14:54:24","1449557664649","Synced","Normal Walk"
"336","36.5932","36.5938","1013.03","36.6854","139.168","268.474","339.552","-9.40997","-23.6864","-22.4579","-1.33953","1.1138","0.14963","-1.8221","1.01208","0.0615328","2015-12-08 14:54:24","1449557664856","Synced","Normal Walk"
"337","36.4852","36.5958","1013.04","37.1769","139.748","268.573","317.244","-8.73799","-20.562","-18.2878","-0.50368","0.599811","-0.147268","-2.17426","0.786064","0.0954358","2015-12-08 14:54:25","1449557665056","Synced","Normal Walk"
"338","36.5212","38.8063","1013.04","36.8538","139.438","257.198","288.162","-7.55502","-18.0574","-15.7041","-0.454228","0.843227","-0.0296465","-1.22681","0.206047","0.642466","2015-12-08 14:54:25","1449557665262","Synced","Normal Walk"
"339","36.5752","36.5979","1013.05","36.6132","156.099","242.035","320.522","-6.8936","-20.2705","-15.8189","-1.03269","1.05125","-0.215721","1.6354","0.805612","-0.437544","2015-12-08 14:54:25","1449557665573","Synced","Normal Walk"
"340","36.5392","36.6","1013.05","36.7645","142.299","258.79","303.797","-7.24688","-23.902","-18.9831","-0.26366","0.347667","-0.0573648","1.52239","-1.02271","-0.146161","2015-12-08 14:54:25","1449557665778","Synced","Normal Walk"
"341","36.5212","36.6","1013.05","37.6753","91.9281","345.903","307.463","-8.30328","-24.7527","-21.0654","0.0284067","2.02879","0.624351","1.4216","-1.0615","-0.424411","2015-12-08 14:54:25","1449557665985","Synced","Normal Walk"
"342","36.6112","36.5896","1013.06","37.0154","194.961","179.309","307.093","-8.12787","-24.2549","-21.0823","0.132322","0.989664","-0.275255","-2.7048","0.752466","-0.465033","2015-12-08 14:54:26","1449557666188","Synced","Normal Walk"
"343","36.5212","36.5958","1013.07","36.8538","134.883","257.267","282.052","-6.89271","-20.2308","-16.288","-0.14956","0.87232","-0.0214515","-1.14587","0.089983","0.377656","2015-12-08 14:54:26","1449557666441","Synced","Normal Walk"
"344","36.5392","36.5896","1013.06","36.8504","132.367","260.878","285.182","-5.85908","-18.9843","-15.2531","-0.461224","1.25175","0.128672","0.143972","0.208491","0.465009","2015-12-08 14:54:26","1449557666662","Synced","Normal Walk"
"345","36.5752","36.5938","1013.05","36.627","135.892","267.776","303.017","-5.57545","-22.7084","-17.2978","-0.655411","1.16883","-0.162212","1.62502","0.749107","-1.02917","2015-12-08 14:54:26","1449557666880","Synced","Normal Walk"
"346","36.4672","36.5938","1013.06","35.4412","131.985","277.427","313.891","-7.63041","-25.3785","-22.4854","-0.424558","0.348152","0.187403","0.358692","-1.20872","-0.534061","2015-12-08 14:54:27","1449557667084","Synced","Normal Walk"
"347","36.5032","36.5938","1013.06","37.0738","96.8096","330.551","307.172","-8.78593","-25.7974","-24.071","-0.291642","0.321483","0.841241","0.817757","-1.11678","0.167518","2015-12-08 14:54:27","1449557667289","Synced","Normal Walk"
"348","36.6472","36.5875","1013.05","36.7851","150.531","233.877","277.709","-8.27572","-24.3716","-21.9189","-0.265348","1.29078","-0.0744778","-1.58814","-0.556618","0.102461","2015-12-08 14:54:27","1449557667489","Synced","Normal Walk"
"349","36.5572","36.5875","1013.03","35.8536","130.654","263.454","286.101","-7.14659","-21.8797","-18.2745","-0.184055","0.849046","-0.0525442","-1.18924","0.255527","0.350167","2015-12-08 14:54:27","1449557667693","Synced","Normal Walk"
"350","36.5572","36.5854","1013.02","36.8229","108.984","283.929","282.392","-6.1188","-20.9379","-17.2006","-0.490895","1.30339","0.278545","0.296383","0.1865","0.285109","2015-12-08 14:54:27","1449557667899","Synced","Normal Walk"
"351","36.4312","36.5854","1013.02","37.4347","132.914","266.956","301.846","-5.91823","-23.6473","-20.107","-0.572429","1.47941","-0.0412159","1.44634","0.702986","-1.17669","2015-12-08 14:54:28","1449557668099","Synced","Normal Walk"
"352","36.6292","39.5438","1013.03","36.0083","135.684","266.536","318.921","-8.19629","-24.9592","-25.1355","-0.444579","0.2696","0.0687225","-0.0160743","-1.17023","-0.364851","2015-12-08 14:54:28","1449557668312","Synced","Normal Walk"
"353","36.5392","36.5792","1013.02","36.8401","96.2811","338.106","314.176","-9.26982","-24.7645","-26.5949","-0.327344","0.112737","0.66115","-0.139164","-0.340066","0.308628","2015-12-08 14:54:28","1449557668520","Synced","Normal Walk"
"354","36.5572","36.5875","1013.03","36.706","147.79","240.412","283.609","-9.58619","-23.2218","-23.4094","-0.488724","1.0784","-0.0812266","-2.1312","0.319974","0.00319516","2015-12-08 14:54:28","1449557668728","Synced","Normal Walk"
"355","36.6112","36.5812","1013.05","37.1872","128.39","262.445","280.681","-8.47924","-20.6024","-19.7516","-0.301532","0.882018","-0.0248259","-1.19718","0.143128","0.625667","2015-12-08 14:54:28","1449557668941","Synced","Normal Walk"
"356","36.5212","36.5792","1013.05","36.8091","120.259","279.359","289.869","-7.84152","-20.113","-18.349","-0.252322","1.41322","-0.033985","0.694973","0.12694","0.320845","2015-12-08 14:54:29","1449557669149","Synced","Normal Walk"
"357","36.4852","36.5812","1013.05","35.3071","136.947","259.791","296.031","-8.49738","-21.8896","-20.9503","-0.623328","1.15719","-0.173782","2.11951","0.264996","-0.723734","2015-12-08 14:54:29","1449557669355","Synced","Normal Walk"
"358","36.3952","36.5792","1013.06","37.0188","135.668","269.644","331.707","-9.93095","-23.5834","-25.0204","-0.437101","0.204382","0.311445","-0.0518099","-1.17329","-0.283606","2015-12-08 14:54:29","1449557669562","Synced","Normal Walk"
"359","36.6292","36.5833","1013.05","35.3381","130.539","327.968","350.052","-10.2891","-23.4902","-27.6962","-0.991921","0.364881","0.344831","-0.939703","0.536831","-0.12753","2015-12-08 14:54:29","1449557669767","Synced","Normal Walk"
"360","36.5752","36.5833","1013.05","36.7163","134.543","261.419","295.316","-10.539","-22.3412","-24.4807","-0.611749","0.698729","-0.0260311","-2.21366","0.150459","-0.00382979","2015-12-08 14:54:29","1449557669975","Synced","Normal Walk"
"361","36.5032","36.5812","1013.04","36.8091","133.782","260.035","283.014","-10.2629","-21.1364","-21.0367","-0.306357","0.870623","0.00243697","-1.29828","-0.0984689","0.572827","2015-12-08 14:54:30","1449557670178","Synced","Normal Walk"
"362","36.4492","36.5667","1013.05","35.9499","94.7681","302.662","282.501","-10.017","-22.013","-21.0128","-0.134122","1.43552","0.0324117","2.91547","0.0524148","0.125674","2015-12-08 14:54:30","1449557670431","Synced","Normal Walk"
"363","36.5032","36.5729","1013.04","36.8951","139.808","254.242","296.458","-11.4362","-22.9891","-26.5303","-0.315282","0.69388","-0.0730317","2.40326","-0.888012","-0.587206","2015-12-08 14:54:30","1449557670634","Synced","Normal Walk"
"364","36.5392","36.5687","1013.04","37.1838","111.52","304.7","325.494","-12.8959","-21.2141","-31.8447","-0.47425","0.447555","0.392352","-0.278135","-1.13847","0.446989","2015-12-08 14:54:30","1449557670843","Synced","Normal Walk"
"365","36.6292","36.5667","1013.03","36.9741","125.999","261.274","341.864","-12.2141","-19.3031","-34.9515","-1.34242","1.31381","0.121361","-0.994986","0.190776","0.122619","2015-12-08 14:54:31","1449557671047","Synced","Normal Walk"
"366","36.6112","36.5708","1013.03","38.2802","127.852","263.045","310.846","-12.6309","-19.3693","-34.3351","-0.504162","0.628177","-0.106294","-1.48032","-0.434445","0.505632","2015-12-08 14:54:31","1449557671248","Synced","Normal Walk"
"367","36.4852","36.5771","1013.04","36.9157","124.625","262.626","289.878","-12.1399","-20.9877","-34.6293","-0.437343","0.91693","-0.0460365","-1.09608","-0.204759","0.680339","2015-12-08 14:54:31","1449557671462","Synced","Normal Walk"
"368","36.5572","36.5771","1013.04","33.922","63.4052","320.434","279.287","-11.9245","-21.7016","-35.3032","-0.110964","1.32909","-0.092796","3.45486","-0.665046","-0.2158","2015-12-08 14:54:31","1449557671684","Synced","Normal Walk"
"369","36.6112","36.5708","1013.05","36.4036","114.776","268.323","284.483","-12.6229","-13.8491","-36.6044","-0.241226","0.717398","-0.105088","2.64944","-1.264","-0.851405","2015-12-08 14:54:31","1449557671891","Synced","Normal Walk"
"370","36.5032","36.5646","1013.06","36.6167","96.2634","296.995","330.852","-10.3327","-8.83503","-36.437","-0.336751","0.351789","0.443772","-0.721318","-0.838532","0.0624491","2015-12-08 14:54:32","1449557672091","Synced","Normal Walk"
"371","36.4672","39.5333","1013.06","36.981","104.223","268.473","343.498","-8.62994","-6.30032","-34.7814","-1.35883","0.634239","0.249058","-1.86852","0.553935","0.155301","2015-12-08 14:54:32","1449557672303","Synced","Normal Walk"
"372","36.6292","36.5604","1013.06","36.5204","110.961","265.001","317.911","-8.80755","-7.63925","-36.6458","-0.348813","0.77413","-0.176674","-1.99803","0.780566","0.124757","2015-12-08 14:54:32","1449557672528","Synced","Normal Walk"
"373","36.5032","36.5667","1013.05","36.7198","118.295","260.186","296.16","-10.2851","-9.69748","-37.9251","-0.467978","0.866017","-0.0903857","-1.26132","0.277213","0.770442","2015-12-08 14:54:32","1449557672733","Synced","Normal Walk"
"374","36.5932","36.5708","1013.05","36.6304","68.9807","311.261","279.306","-11.8938","-10.7712","-37.5142","-0.0557232","1.32303","-0.0952063","3.36965","-0.369693","-0.223436","2015-12-08 14:54:32","1449557672947","Synced","Normal Walk"
"375","36.5032","36.5708","1013.06","36.9432","117.544","263.338","290.162","-10.6088","-6.92958","-31.5858","-0.249669","0.767099","-0.0742368","2.48175","-0.820206","-0.765884","2015-12-08 14:54:33","1449557673147","Synced","Normal Walk"
"376","36.5932","38.4188","1013.06","36.4964","100.067","294.092","338.096","-9.52182","-7.39323","-29.9428","-0.353396","0.330454","0.484713","-0.954974","-0.563032","0.184317","2015-12-08 14:54:33","1449557673353","Synced","Normal Walk"
"377","36.4312","36.5646","1013.07","36.7782","105.377","279.682","354.447","-9.05236","-8.24919","-30.1192","-1.27005","0.78407","0.156941","-1.96473","0.731697","0.176986","2015-12-08 14:54:33","1449557673560","Synced","Normal Walk"
"378","36.4492","36.5646","1013.06","37.1185","114.896","268.42","317.652","-9.9518","-10.6531","-33.0127","-0.516706","0.563929","-0.135699","-2.46106","1.08478","0.111318","2015-12-08 14:54:33","1449557673765","Synced","Normal Walk"
"379","36.5572","36.5583","1013.08","36.8023","120.965","262.416","295.805","-10.5932","-13.1494","-33.6499","-0.444579","0.844197","-0.0376005","-1.35387","0.605859","0.733485","2015-12-08 14:54:33","1449557673971","Synced","Normal Walk"
"380","36.6472","36.5583","1013.07","36.3039","45.1436","335.123","276.632","-10.8384","-15.8658","-33.4547","-0.156797","1.36085","0.008042","2.55323","-0.148254","-0.235959","2015-12-08 14:54:34","1449557674171","Synced","Normal Walk"
"381","36.5752","36.5521","1013.05","36.4551","139.756","241.365","296.616","-9.87271","-14.1495","-32.3331","-0.296708","0.476164","-0.177879","2.51138","-0.506221","-0.462895","2015-12-08 14:54:34","1449557674424","Synced","Normal Walk"
"382","36.4312","36.5542","1013.05","37.5687","75.6335","344.998","327.597","-8.92256","-14.2104","-34.2185","-0.300567","1.54947","1.19143","0.506826","-0.633281","0.0994064","2015-12-08 14:54:34","1449557674627","Synced","Normal Walk"
"383","36.4852","36.5667","1013.06","38.2527","126.186","253.999","301.863","-8.38178","-14.3911","-34.3884","-0.350501","0.729277","-0.0968935","-2.42441","1.09211","0.0309895","2015-12-08 14:54:34","1449557674840","Synced","Normal Walk"
"384","36.4492","36.5563","1013.07","36.6751","151.396","227.591","290.879","-9.26488","-16.7634","-32.9124","-0.145218","0.961298","-0.160284","-1.68007","0.289736","0.282666","2015-12-08 14:54:35","1449557675040","Synced","Normal Walk"
"385","36.4852","36.5563","1013.08","36.572","127.396","257.253","292.561","-9.693","-18.208","-32.0234","-0.133157","1.39188","-0.10075","-0.537753","0.528584","0.552363","2015-12-08 14:54:35","1449557675245","Synced","Normal Walk"
"386","36.5932","36.5542","1013.09","36.871","148.491","235.697","303.342","-10.639","-18.2563","-30.9752","-0.782778","0.895595","-0.276219","2.293","0.536831","-0.760692","2015-12-08 14:54:35","1449557675452","Synced","Normal Walk"
"387","36.5932","36.5542","1013.08","36.682","140.889","246.471","306.737","-12.3621","-17.4896","-31.7079","-0.328791","0.311301","-0.0978576","2.22519","-0.863578","-0.164182","2015-12-08 14:54:35","1449557675656","Synced","Normal Walk"
"388","36.5212","36.55","1013.06","37.4691","79.3557","332.983","315.943","-12.1131","-17.8624","-34.9944","-0.394404","1.73058","1.03108","0.579214","-1.01721","-0.142496","2015-12-08 14:54:35","1449557675862","Synced","Normal Walk"
"389","36.5752","36.5438","1013.07","36.7885","180.201","198.427","284.833","-12.5856","-18.3638","-37.3015","0.0937179","0.785282","-0.289716","-2.71457","0.78698","-0.818113","2015-12-08 14:54:36","1449557676063","Synced","Normal Walk"
"390","36.4672","39.5229","1013.06","36.6167","150.881","232.82","289.643","-13.054","-21.2847","-36.1269","-0.24798","1.00324","-0.144858","-1.35112","0.409771","0.40209","2015-12-08 14:54:36","1449557676268","Synced","Normal Walk"
"391","36.6112","36.55","1013.05","36.6476","139.379","244.111","285.028","-11.2717","-24.1643","-34.7558","-0.133398","1.27769","-0.0795394","-0.339833","0.52217","0.565497","2015-12-08 14:54:36","1449557676468","Synced","Normal Walk"
"392","36.5392","36.5521","1013.06","36.3554","155.857","221.979","310.985","-9.09027","-23.5627","-37.72","-0.90122","0.836196","-0.398179","2.21114","0.399081","-0.460757","2015-12-08 14:54:36","1449557676690","Synced","Normal Walk"
"393","36.5032","36.5396","1013.07","36.8298","130.851","248.32","302.779","-9.53096","-17.7156","-40.7377","-0.277651","0.30136","-0.050375","1.58592","-1.22949","-0.00566239","2015-12-08 14:54:36","1449557676912","Synced","Normal Walk"
"394","36.4672","36.5375","1013.07","36.462","38.9948","341.437","297.074","-7.47038","-17.5747","-41.8346","-0.441202","1.53202","0.642872","0.851049","-0.563032","-0.380428","2015-12-08 14:54:37","1449557677112","Synced","Normal Walk"
"395","36.5392","36.5521","1013.07","36.3176","233.55","129.659","307.377","-8.50025","-19.3705","-41.5172","-0.0566881","1.14628","-0.0812266","-2.11623","-0.0865571","-0.257644","2015-12-08 14:54:37","1449557677318","Synced","Normal Walk"
"396","36.4852","39.5208","1013.08","38.0396","125.506","254.941","284.196","-9.87175","-23.3785","-38.4481","-0.209625","0.78601","-0.100509","-1.20146","0.222235","0.438131","2015-12-08 14:54:37","1449557677530","Synced","Normal Walk"
"397","36.5752","36.5438","1013.07","36.3795","152.036","223.744","276.616","-9.01122","-26.4183","-36.7584","-0.188156","1.23478","0.0107227","0.0169124","0.151986","0.34528","2015-12-08 14:54:37","1449557677731","Synced","Normal Walk"
"398","36.4852","36.5479","1013.07","35.8674","133.225","249.344","314.481","-9.50855","-22.2237","-39.9387","-0.766616","1.36133","-0.0535083","1.58623","0.501401","-1.39049","2015-12-08 14:54:37","1449557677942","Synced","Normal Walk"
"399","36.5032","36.5521","1013.06","37.1529","118.832","261.056","315.206","-8.6449","-15.7459","-41.2899","-0.375106","0.27057","0.0511763","0.954285","-1.11006","0.0465666","2015-12-08 14:54:38","1449557678143","Synced","Normal Walk"
"400","36.4852","36.5438","1013.06","36.3898","95.6429","316.133","336.842","-5.25025","-14.751","-41.5325","-1.09927","0.295057","-0.067247","-1.30042","0.74422","-0.0911835","2015-12-08 14:54:38","1449557678393","Synced","Normal Walk"
"401","36.4672","36.5417","1013.05","36.3142","114.725","264.893","301.729","-5.81487","-18.3825","-38.7326","-0.582561","0.500651","-0.102678","-2.04873","0.410993","0.230437","2015-12-08 14:54:38","1449557678597","Synced","Normal Walk"
"402","36.5212","36.5438","1013.06","36.4723","136.697","238.939","286.786","-6.32938","-21.3238","-35.7006","-0.345677","0.889534","-0.0899037","-1.34318","0.195052","0.564275","2015-12-08 14:54:38","1449557678802","Synced","Normal Walk"
"403","36.5392","36.5375","1013.07","35.6577","95.6594","287.389","286.687","-6.65216","-23.4055","-33.0971","-0.133157","1.3383","0.104302","1.85837","0.732613","-0.167847","2015-12-08 14:54:39","1449557679010","Synced","Normal Walk"
"404","36.4852","36.5396","1013.08","36.2729","120.216","264.208","297.109","-8.14231","-21.5123","-35.7283","-0.341335","0.892201","-0.110873","2.31529","-0.117406","-0.676698","2015-12-08 14:54:39","1449557679215","Synced","Normal Walk"
"405","36.5752","36.5375","1013.08","36.4345","108.086","297.518","333.269","-8.03605","-18.6749","-37.4759","-0.346883","0.368033","0.333377","-0.906716","-0.454298","-0.125087","2015-12-08 14:54:39","1449557679415","Synced","Normal Walk"
"406","36.4312","36.5417","1013.08","35.3312","121.888","319.195","358.954","-7.84738","-19.1836","-37.0562","-0.967316","-0.0456646","-0.0130155","-1.66297","0.994064","0.131782","2015-12-08 14:54:39","1449557679619","Synced","Normal Walk"
"407","36.3412","36.5292","1013.09","35.8021","128.808","257.22","299.099","-8.93521","-21.8619","-33.5599","-0.587626","0.771948","-0.0696573","-2.47114","0.531028","-0.126614","2015-12-08 14:54:39","1449557679821","Synced","Normal Walk"
"408","36.5572","36.5271","1013.09","36.816","118.746","268.677","286.854","-9.59723","-23.0591","-30.3828","-0.412014","0.878139","-0.0858062","-1.23506","0.518505","0.591153","2015-12-08 14:54:40","1449557680032","Synced","Normal Walk"
"409","36.5032","36.5375","1013.09","36.0461","100.727","292.74","291.257","-9.30936","-24.1008","-30.0163","-0.330479","1.48522","0.133058","1.00468","0.877083","0.243265","2015-12-08 14:54:40","1449557680233","Synced","Normal Walk"
"410","36.5032","36.5292","1013.08","37.5584","129.923","254.429","298.092","-8.68481","-21.5088","-34.182","-0.35412","0.873048","-0.0980986","2.21847","-0.133288","-0.589955","2015-12-08 14:54:40","1449557680437","Synced","Normal Walk"
"411","36.4132","36.5312","1013.06","36.6717","112.104","286.563","332.409","-7.15836","-19.1353","-37.0379","-0.369799","0.225475","0.333134","-0.656261","-0.643361","-0.373709","2015-12-08 14:54:40","1449557680638","Synced","Normal Walk"
"412","36.6472","36.5333","1013.06","36.8195","136.234","328.098","16.2759","-5.54493","-18.3195","-37.7607","-1.08407","0.118071","-0.0219336","-2.06247","1.13029","-0.220382","2015-12-08 14:54:40","1449557680844","Synced","Normal Walk"
"413","36.4852","36.5271","1013.06","35.369","127.613","251.613","294.938","-6.68201","-20.6908","-36.1655","-0.530697","0.714003","-0.092796","-2.2943","0.461084","-0.104317","2015-12-08 14:54:41","1449557681058","Synced","Normal Walk"
"414","36.4492","36.525","1013.05","36.4654","133.796","245.285","283.811","-7.58589","-22.7747","-32.6237","-0.389821","0.831832","-0.0802625","-1.32455","0.184667","0.650101","2015-12-08 14:54:41","1449557681264","Synced","Normal Walk"
"415","36.5032","36.5375","1013.06","35.9945","110.105","271.052","281.204","-7.68136","-23.458","-31.3543","-0.151972","1.58608","0.145243","1.62043","0.256749","-0.0682761","2015-12-08 14:54:41","1449557681470","Synced","Normal Walk"
"416","36.5032","36.5375","1013.08","34.9703","137.553","244.281","293.698","-8.83712","-20.8773","-33.8187","-0.287541","0.765159","-0.147268","2.33881","-0.0694528","-0.680363","2015-12-08 14:54:41","1449557681686","Synced","Normal Walk"
"417","36.4852","36.5333","1013.09","37.0463","103.805","305.552","328.587","-8.12094","-18.636","-36.4592","-0.402847","0.422341","0.582192","-0.840742","-0.694368","0.143083","2015-12-08 14:54:41","1449557681893","Synced","Normal Walk"
"418","36.3952","36.5208","1013.08","36.5754","120.674","259.441","343.308","-6.9672","-18.1711","-37.7702","-1.39863","1.55335","0.184722","-1.74452","0.501706","-0.17365","2015-12-08 14:54:42","1449557682104","Synced","Normal Walk"
"419","36.3772","36.525","1013.07","36.5067","150.205","227.934","292.21","-8.43294","-21.2099","-35.0183","-0.193946","1.03355","-0.11015","-1.62693","0.564625","0.197145","2015-12-08 14:54:42","1449557682354","Synced","Normal Walk"
"420","36.4852","36.5271","1013.07","36.8504","127.825","258.172","297.214","-8.35273","-22.9547","-33.0963","-0.349778","1.07331","-0.162935","-1.10708","0.294928","0.625972","2015-12-08 14:54:42","1449557682554","Synced","Normal Walk"
"421","36.5392","36.525","1013.06","35.1387","88.2698","291.389","280.402","-7.65363","-23.3566","-34.2145","-0.444097","1.11452","-0.417462","3.63904","-0.153447","-0.810172","2015-12-08 14:54:42","1449557682760","Synced","Normal Walk"
"422","36.4312","36.5271","1013.06","36.108","129.219","249.863","297.279","-7.99467","-18.6329","-37.929","-0.204318","0.443434","-0.0735137","2.10974","-0.66016","-0.187089","2015-12-08 14:54:42","1449557682984","Synced","Normal Walk"
"423","36.5392","36.5208","1013.06","36.8813","71.7543","330.045","316.582","-6.70219","-17.3059","-38.9527","-0.393681","1.70658","0.908989","1.0673","-1.02637","-0.349274","2015-12-08 14:54:43","1449557683188","Synced","Normal Walk"
"424","36.5752","36.5146","1013.05","35.9842","130.943","244.463","290.721","-6.85051","-17.5742","-38.9356","0.00291351","0.403188","-0.287306","-2.44487","0.782704","-0.306208","2015-12-08 14:54:43","1449557683395","Synced","Normal Walk"
"425","36.4852","36.5271","1013.07","35.8777","133.541","242.743","288.308","-7.37659","-19.9091","-38.2688","-0.197805","1.07428","-0.0821908","-1.26468","-0.102134","0.478143","2015-12-08 14:54:43","1449557683601","Synced","Normal Walk"
"426","36.5392","36.5146","1013.06","36.4001","116.139","265.838","295.615","-6.33031","-22.417","-36.8175","-0.397058","1.05003","-0.15233","-0.301348","0.443979","0.31046","2015-12-08 14:54:43","1449557683807","Synced","Normal Walk"
"427","36.5212","36.5187","1013.06","36.6854","127.287","248.238","285.27","-6.27548","-21.8319","-37.6056","-0.507057","0.930507","-0.438913","3.59353","-0.868159","-0.637603","2015-12-08 14:54:44","1449557684008","Synced","Normal Walk"
"428","36.5392","36.5229","1013.07","37.0841","118.738","258.1","311.074","-5.15235","-16.3138","-39.6254","-0.129538","0.671818","-0.110873","2.12073","-1.2979","-0.778407","2015-12-08 14:54:44","1449557684213","Synced","Normal Walk"
"429","36.6472","36.5208","1013.08","37.1219","84.9852","306.985","321.113","-2.26227","-14.1169","-39.8014","-0.638525","1.0013","0.520049","0.431995","-0.97842","0.35933","2015-12-08 14:54:44","1449557684420","Synced","Normal Walk"
"430","36.5032","36.5271","1013.1","36.3073","102.559","277.695","331.252","0.234816","-12.9274","-39.378","-1.35714","1.0207","-0.14534","-1.097","0.452532","0.569467","2015-12-08 14:54:44","1449557684632","Synced","Normal Walk"
"431","36.4852","36.5167","1013.08","37.5447","145.288","217.715","286.925","-0.142189","-16.7491","-40.5573","-0.155108","1.08082","-0.0966525","-1.05577","-0.581358","0.190731","2015-12-08 14:54:44","1449557684876","Synced","Normal Walk"
"432","36.5212","36.5167","1013.07","36.2489","113.027","255.805","295.85","0.378419","-18.4621","-40.1337","-0.262213","1.1938","-0.181736","-0.45437","0.00446187","0.640328","2015-12-08 14:54:45","1449557685080","Synced","Normal Walk"
"433","36.5392","36.5187","1013.07","36.6613","127.766","236.906","296.749","0.526184","-15.9528","-40.6524","-0.726572","0.883231","-0.559186","2.50894","0.035616","-0.72404","2015-12-08 14:54:45","1449557685289","Synced","Normal Walk"
"434","36.3952","36.5125","1013.07","35.7849","116.48","245.663","294.462","1.66907","-11.4","-38.0061","-0.219274","0.41434","-0.169202","1.97657","-1.22918","-0.248787","2015-12-08 14:54:45","1449557685504","Synced","Normal Walk"
"435","36.4672","36.525","1013.05","36.3176","21.3767","343.564","312.581","2.91679","-10.5963","-35.2506","-0.293813","1.86974","0.80688","1.01415","-0.838227","-0.665702","2015-12-08 14:54:45","1449557685710","Synced","Normal Walk"
"436","36.5212","36.5125","1013.05","36.6132","182.663","171.962","294.74","3.25848","-11.0606","-35.3168","0.315873","0.320271","-0.338163","-2.32667","0.451004","-0.428992","2015-12-08 14:54:45","1449557685913","Synced","Normal Walk"
"437","36.5752","36.5125","1013.05","36.3245","130.954","227.648","283.627","2.93402","-14.1076","-37.4337","-0.276204","1.10871","-0.0894216","-1.26102","0.00995965","0.423776","2015-12-08 14:54:46","1449557686114","Synced","Normal Walk"
"438","36.4852","36.5104","1013.06","36.7026","136.442","221.979","275.974","2.08939","-15.8638","-38.1512","-0.276204","1.29515","0.0772519","0.195591","-0.143062","0.42286","2015-12-08 14:54:46","1449557686371","Synced","Normal Walk"
"439","36.4312","36.5125","1013.06","35.9464","103.965","261.423","303.663","2.33107","-11.7722","-37.1227","-0.614885","1.40037","-0.136904","1.88127","0.597307","-1.12996","2015-12-08 14:54:46","1449557686586","Synced","Normal Walk"
"440","36.4312","36.5104","1013.06","36.4104","98.0217","267.47","315.605","4.33628","-9.47304","-33.7675","-0.430106","0.290208","0.0782267","0.32265","-0.864494","-0.324534","2015-12-08 14:54:46","1449557686799","Synced","Normal Walk"
"441","36.5392","36.5083","1013.07","36.1286","34.9368","324.925","303.64","5.70151","-9.10517","-30.8844","-0.461465","0.0994028","0.790553","0.680618","-0.815625","0.304657","2015-12-08 14:54:46","1449557686999","Synced","Normal Walk"
"442","36.5392","36.5042","1013.07","36.5376","98.5539","252.665","276.624","6.37181","-9.8791","-34.0449","-0.429865","1.21077","-0.0115694","-1.77873","-0.207508","0.0184668","2015-12-08 14:54:47","1449557687204","Synced","Normal Walk"
"443","36.5752","36.5042","1013.06","35.9499","113.405","240.684","283.342","6.07826","-12.1069","-36.8796","-0.205042","0.818255","-0.145581","-1.19168","-0.100302","0.446072","2015-12-08 14:54:47","1449557687411","Synced","Normal Walk"
"444","36.4312","36.5083","1013.06","36.596","108.246","245.884","277.69","5.46879","-13.3096","-37.5132","-0.367869","1.2275","0.0392352","0.249347","0.0930373","0.235629","2015-12-08 14:54:47","1449557687611","Synced","Normal Walk"
"445","36.5212","37.6271","1013.06","36.5307","100.585","261.307","309.677","5.74812","-11.0451","-36.7944","-0.785673","1.29248","-0.13594","1.87791","0.847761","-0.953725","2015-12-08 14:54:47","1449557687818","Synced","Normal Walk"
"446","36.3412","36.5042","1013.08","35.7368","95.9764","269.068","320.425","6.52337","-9.66792","-34.8358","-0.381137","0.210443","0.110151","0.43902","-0.920083","-0.138526","2015-12-08 14:54:48","1449557688029","Synced","Normal Walk"
"447","36.5032","36.5042","1013.08","35.1903","35.3959","324.95","307.449","7.08183","-9.92383","-33.8201","-0.414426","0.0121223","0.848552","0.553558","-0.927413","0.405144","2015-12-08 14:54:48","1449557688230","Synced","Normal Walk"
"448","36.5212","36.5104","1013.08","36.2867","310.228","41.1514","270.971","5.55677","-12.3354","-37.7341","-0.590762","1.39091","-0.00723086","-2.17121","0.233231","0.0276298","2015-12-08 14:54:48","1449557688434","Synced","Normal Walk"
"449","36.4672","36.4979","1013.08","36.1011","104.345","255.264","281.703","3.2624","-15.9306","-39.9134","-0.118683","0.875472","-0.0388056","-1.13671","0.290958","0.411559","2015-12-08 14:54:48","1449557688640","Synced","Normal Walk"
"450","36.4312","36.5042","1013.08","36.5342","78.3993","283.422","281.321","2.3089","-17.4048","-39.5603","-0.384997","1.32885","0.194957","0.387097","0.253389","0.112235","2015-12-08 14:54:48","1449557688847","Synced","Normal Walk"
"451","36.5932","36.5","1013.08","36.5307","109.104","257.632","301.099","1.53126","-14.3228","-38.7539","-0.698108","1.3029","-0.202223","1.93442","0.578675","-1.08048","2015-12-08 14:54:49","1449557689047","Synced","Normal Walk"
"452","36.4852","39.1229","1013.06","36.4276","116.113","247.843","316.947","1.74708","-12.0125","-37.4008","-0.27548","0.0795223","0.0933359","0.112818","-1.45948","-0.107066","2015-12-08 14:54:49","1449557689260","Synced","Normal Walk"
"453","36.4492","36.4938","1013.06","36.6648","89.5023","317.282","336.755","3.01777","-11.8949","-35.5614","-0.907009","0.182562","0.735964","-0.10801","-0.343426","0.620474","2015-12-08 14:54:49","1449557689460","Synced","Normal Walk"
"454","36.4492","36.4917","1013.07","36.6304","283.786","72.2622","271.016","2.30327","-14.7637","-37.0459","-0.429382","0.980209","-0.0103642","-1.97084","0.00568359","-0.030097","2015-12-08 14:54:49","1449557689665","Synced","Normal Walk"
"455","36.4852","36.4938","1013.08","36.4517","122.045","241.683","286.35","1.33","-17.7562","-36.2933","-0.200218","0.9179","-0.0802625","-1.29064","0.3383","0.358108","2015-12-08 14:54:49","1449557689870","Synced","Normal Walk"
"456","36.5212","36.4979","1013.07","37.4175","109.894","251.649","275.95","0.873129","-19.2963","-35.499","-0.374141","1.28448","0.0406974","0.111597","0.0453898","0.317485","2015-12-08 14:54:50","1449557690070","Synced","Normal Walk"
"457","36.4852","36.4917","1013.08","36.4036","112.512","256.161","298.984","1.12487","-16.3679","-35.5321","-0.42118","0.772918","-0.141002","2.48084","-0.0376878","-0.529785","2015-12-08 14:54:50","1449557690320","Synced","Normal Walk"
"458","36.4852","36.4958","1013.08","36.3623","97.3776","298.672","331.364","1.66914","-14.2293","-34.6122","-0.300809","0.378701","0.512251","-0.248509","-0.466515","-0.0930161","2015-12-08 14:54:50","1449557690524","Synced","Normal Walk"
"459","36.5032","36.4896","1013.08","36.926","108.094","302.521","345.642","2.8434","-14.2784","-33.603","-1.37909","0.136982","0.197394","-1.52369","0.374341","0.312598","2015-12-08 14:54:50","1449557690730","Synced","Normal Walk"
"460","36.4852","36.4958","1013.09","36.6235","101.895","269.022","304.218","2.72156","-16.1355","-34.6757","-0.589315","0.516895","-0.0747189","-2.2888","0.510258","0.108875","2015-12-08 14:54:50","1449557690930","Synced","Normal Walk"
"461","36.4672","36.4896","1013.09","37.28","109.919","253.152","286.238","2.64226","-18.2726","-35.0751","-0.391751","0.802254","-0.122443","-1.48154","0.345325","0.678201","2015-12-08 14:54:51","1449557691135","Synced","Normal Walk"
"462","36.5752","36.4917","1013.08","37.366","86.2521","274.428","278.031","2.17456","-18.2298","-34.9292","-0.118924","1.44764","0.094067","2.11585","0.159316","0.184928","2015-12-08 14:54:51","1449557691335","Synced","Normal Walk"
"463","36.5392","36.4875","1013.08","36.187","108.066","258.567","303.485","2.83445","-14.5717","-35.8731","-0.433001","0.690244","-0.0783343","2.16991","-0.0218053","-0.744504","2015-12-08 14:54:51","1449557691550","Synced","Normal Walk"
"464","36.5212","36.4917","1013.07","36.3348","90.2893","327.776","337.028","4.39661","-13.0228","-33.3288","-0.295019","0.511076","0.521268","-0.646793","-0.891372","0.322678","2015-12-08 14:54:51","1449557691778","Synced","Normal Walk"
"465","36.4492","36.4917","1013.07","36.4276","92.3921","271.366","300.343","5.1528","-12.8308","-32.7488","-0.282234","0.385731","-0.156428","-2.10859","0.81172","-0.439682","2015-12-08 14:54:52","1449557692005","Synced","Normal Walk"
"466","36.4852","36.4792","1013.07","36.132","117.576","243.952","302.582","4.87304","-15.4015","-35.1562","-0.237608","1.00179","-0.225603","-1.92075","0.957717","0.143694","2015-12-08 14:54:52","1449557692210","Synced","Normal Walk"
"467","36.4132","36.4854","1013.06","36.4792","90.0777","276.466","294.93","3.82558","-17.0777","-36.2623","-0.159209","1.38243","-0.147509","-0.466282","0.890827","0.631775","2015-12-08 14:54:52","1449557692414","Synced","Normal Walk"
"468","36.3952","36.4854","1013.06","37.9468","133.317","225.532","295.977","4.06783","-15.6448","-36.0417","-0.662889","0.93972","-0.568104","2.30796","0.28943","-0.539253","2015-12-08 14:54:52","1449557692622","Synced","Normal Walk"
"469","36.4312","36.4771","1013.05","36.1733","113.249","246.791","294.454","3.98076","-12.7099","-34.8037","-0.145459","0.359547","-0.151125","1.94633","-1.18734","-0.225574","2015-12-08 14:54:52","1449557692829","Synced","Normal Walk"
"470","36.4492","36.4854","1013.05","36.5754","3.92003","348.126","305.304","5.49246","-12.4733","-32.7362","-0.55289","2.20165","0.589503","1.6693","-0.866021","-0.316593","2015-12-08 14:54:53","1449557693036","Synced","Normal Walk"
"471","36.5032","36.4833","1013.04","36.1423","169.885","180.168","304.605","6.02126","-12.4935","-33.0657","0.0361761","0.634723","-0.217167","-2.17579","0.491627","-0.240235","2015-12-08 14:54:53","1449557693242","Synced","Normal Walk"
"472","36.3952","36.4854","1013.05","36.2386","116.061","238.607","283.24","6.17225","-15.3947","-35.4403","-0.124955","0.95354","-0.0956884","-1.41496","0.358458","0.422554","2015-12-08 14:54:53","1449557693456","Synced","Normal Walk"
"473","36.3772","36.4813","1013.07","35.3209","216.889","133.032","277.159","5.35005","-16.5479","-36.4026","-0.0231577","1.34776","0.0467898","0.18826","-0.0456291","0.232575","2015-12-08 14:54:53","1449557693661","Synced","Normal Walk"
"474","36.4492","36.4833","1013.07","36.2145","110.486","251.688","312.575","6.14635","-14.0763","-36.5296","-0.987096","1.41346","0.0553192","1.63479","0.406106","-1.16997","2015-12-08 14:54:53","1449557693866","Synced","Normal Walk"
"475","36.4312","36.4792","1013.08","36.8813","113.213","244.972","314.528","6.24565","-11.8762","-36.3309","-0.305392","0.136739","0.0289999","0.772247","-1.20078","-0.0111602","2015-12-08 14:54:54","1449557694073","Synced","Normal Walk"
"476","36.4672","36.4708","1013.07","36.3176","131.763","316.078","8.7923","8.27488","-11.0817","-33.6745","-1.10988","-0.19969","0.0360671","-1.87494","1.2659","0.302519","2015-12-08 14:54:54","1449557694323","Synced","Normal Walk"
"477","36.3412","36.475","1013.06","36.4792","92.2903","270.834","303.615","6.96616","-14.134","-38.9206","-0.603547","0.549867","-0.0648367","-2.55239","0.898769","-0.0111602","2015-12-08 14:54:54","1449557694531","Synced","Normal Walk"
"478","36.3772","36.4813","1013.04","35.8949","97.1013","260.068","282.575","5.68651","-17.2329","-40.2637","-0.4289","0.877169","-0.058811","-1.29492","0.126024","0.693473","2015-12-08 14:54:54","1449557694737","Synced","Normal Walk"
"479","36.3952","36.4792","1013.04","37.5241","64.9388","295.651","285.444","4.72158","-18.3349","-41.232","-0.140152","1.57032","0.191058","1.7872","-0.050516","0.162631","2015-12-08 14:54:54","1449557694942","Synced","Normal Walk"
"480","36.3592","36.4688","1013.03","36.3451","107.889","253.342","297.791","4.17261","-13.3445","-41.3189","-0.276686","0.777524","-0.187279","2.40784","0.0860124","-0.67853","2015-12-08 14:54:55","1449557695143","Synced","Normal Walk"
"481","36.3592","36.475","1013.04","36.7095","92.4893","298.493","340.489","5.14945","-9.41583","-37.8187","-0.373659","0.31421","0.524436","-1.00659","-0.553258","-0.0725521","2015-12-08 14:54:55","1449557695348","Synced","Normal Walk"
"482","36.3952","36.4688","1013.04","34.905","103.327","268.369","351.623","5.5137","-9.53821","-36.9506","-0.933303","0.854137","-0.075683","-1.49254","0.790035","0.392011","2015-12-08 14:54:55","1449557695555","Synced","Normal Walk"
"483","36.4132","36.4771","1013.04","36.9294","106.594","259.55","315.357","3.88745","-13.4688","-40.3787","-0.458088","0.737278","-0.206562","-2.31629","0.667862","-0.0282644","2015-12-08 14:54:55","1449557695761","Synced","Normal Walk"
"484","36.3952","36.4708","1013.04","36.486","103.587","262.399","293.034","2.03539","-17.1791","-40.7324","-0.546135","0.846136","0.024126","-1.51147","0.551492","0.752727","2015-12-08 14:54:55","1449557695966","Synced","Normal Walk"
"485","36.3952","36.4708","1013.05","36.2867","62.1428","303.139","284.965","1.03779","-17.7441","-40.2323","-0.24002","1.27842","-0.0108463","3.17356","0.150459","-0.55483","2015-12-08 14:54:56","1449557696174","Synced","Normal Walk"
"486","36.3952","36.4667","1013.05","36.4757","105.161","261.889","304.283","1.0328","-12.0746","-39.0118","-0.273791","0.567323","-0.127022","2.40814","-0.252102","-0.562771","2015-12-08 14:54:56","1449557696380","Synced","Normal Walk"
"487","36.3772","36.4646","1013.04","36.4551","56.5932","330.392","323.923","1.8929","-10.3999","-36.3712","-0.44072","1.14483","1.16463","0.19162","-0.445746","0.0908543","2015-12-08 14:54:56","1449557696601","Synced","Normal Walk"
"488","36.4492","36.4625","1013.04","37.2319","95.967","270.82","303.514","2.00542","-10.5799","-35.8347","-0.176577","0.276873","-0.199331","-2.14525","0.836766","-0.513597","2015-12-08 14:54:56","1449557696811","Synced","Normal Walk"
"489","36.3052","36.4688","1013.02","36.297","133.772","228.6","295.63","1.13856","-14.0782","-37.574","-0.177301","1.14628","-0.246813","-1.84103","0.814775","0.125979","2015-12-08 14:54:57","1449557697018","Synced","Normal Walk"
"490","36.4852","36.4688","1013.02","37.1254","102.029","268.813","296.718","0.153773","-16.7319","-37.9591","-0.237366","1.2389","-0.162935","-0.834023","0.478188","0.618336","2015-12-08 14:54:57","1449557697222","Synced","Normal Walk"
"491","36.4312","37.975","1013.02","36.4242","124.471","239.704","286.427","0.230052","-15.2049","-37.0027","-0.467496","0.891716","-0.597992","3.04803","-0.176049","-0.725567","2015-12-08 14:54:57","1449557697428","Synced","Normal Walk"
"492","36.3592","36.4688","1013.03","37.4209","129.284","231.757","290.515","1.68002","-12.4827","-36.4753","-0.146907","0.324635","-0.16631","2.13356","-0.926191","-0.0643055","2015-12-08 14:54:57","1449557697637","Synced","Normal Walk"
"493","36.3772","36.4688","1013.04","37.8506","32.3692","339.863","317.173","3.28059","-12.1137","-34.2495","-0.219757","1.81737","0.77983","0.596929","-0.610679","-0.533755","2015-12-08 14:54:57","1449557697844","Synced","Normal Walk"
"494","36.3232","36.4625","1013.06","36.1492","154.419","200.782","281.24","3.77184","-12.9473","-35.0131","0.191078","0.488529","-0.351179","-2.407","0.808361","-0.277497","2015-12-08 14:54:58","1449557698051","Synced","Normal Walk"
"495","36.4132","36.4646","1013.05","36.9432","95.5522","266.26","285.155","3.20243","-16.665","-36.7808","-0.223616","0.838136","-0.0460365","-1.04172","-0.0486834","0.463788","2015-12-08 14:54:58","1449557698305","Synced","Normal Walk"
"496","36.4132","36.4625","1013.05","36.1939","176.093","179.022","272.618","3.12003","-17.4675","-35.8963","-0.515017","1.29005","0.00852939","0.157717","-0.308912","0.209362","2015-12-08 14:54:58","1449557698512","Synced","Normal Walk"
"497","36.4492","36.4625","1013.06","35.2693","100.56","269.068","306.242","3.58554","-15.3526","-35.6322","-0.716441","1.51674","-0.108222","1.9561","0.695656","-0.99557","2015-12-08 14:54:58","1449557698719","Synced","Normal Walk"
"498","36.3592","36.475","1013.04","36.627","101.51","268.893","315.394","3.94121","-13.3534","-35.3868","-0.431071","0.239294","0.0930922","0.413364","-1.10853","-0.41311","2015-12-08 14:54:58","1449557698925","Synced","Normal Walk"
"499","36.4132","36.4625","1013.05","36.3073","47.5997","324.28","310.261","4.66736","-13.2126","-34.6925","-0.813896","0.242931","0.744981","0.103961","-0.366944","0.68431","2015-12-08 14:54:59","1449557699133","Synced","Normal Walk"
"500","36.2692","36.4562","1013.05","37.0016","131.677","224.37","274.354","3.30146","-15.2829","-35.9396","-0.478833","0.575567","0.000974787","-2.10798","0.127551","0.125674","2015-12-08 14:54:59","1449557699339","Synced","Normal Walk"
"501","36.5392","36.4688","1013.05","36.4242","118.164","242.254","281.604","2.58546","-17.566","-36.4145","-0.235436","0.845409","-0.112319","-1.4397","0.161454","0.530677","2015-12-08 14:54:59","1449557699552","Synced","Normal Walk"
"502","36.3592","36.4583","1013.05","36.6751","70.6151","293.346","284.636","2.48027","-18.745","-36.2267","-0.218068","1.48765","0.138176","1.54621","0.286682","0.0572567","2015-12-08 14:54:59","1449557699759","Synced","Normal Walk"
